"view_history","rt","trial_type","trial_index","time_elapsed","internal_node_id","subject","condition","qualtricsId","responses","invalidEntries","response0","image","imageName","naming_response","Actual.Completion.Code","age","gender","education_level","languages_besides_english","language_1","language_2","language_3","language_4","other_languages","native_language","category","category_plural","typicality_subjective","animal_name","original_image_name","source","final_image_name","final_image_name_ext","image_experiment_name","image_path"
"[{""page_index"":0,""viewing_time"":8247}]",8248,"instructions",0,8299,"0.0-0.0","p100257","3,0,0,8,7,6,1,4","R_2xSplCfTAKiGsVH","",NA,"","","","","wCZhbNgNAMINALPuLPFTxgxV","35","Male","Bachelor's Degree","No","","","","","","",NA,NA,NA,NA,NA,NA,NA,NA,NA,NA
"",3261,"survey-text-columnResponse",1,11563,"0.0-1.0","p100257","3,0,0,8,7,6,1,4","R_2xSplCfTAKiGsVH","{""Q0"":""giraffe""}",0,"giraffe","lib/images/giraffe.jpg","giraffe.jpg","giraffe","wCZhbNgNAMINALPuLPFTxgxV","35","Male","Bachelor's Degree","No","","","","","","",NA,NA,NA,NA,NA,NA,NA,NA,NA,NA
"",2560,"survey-text-columnResponse",2,14329,"0.0-2.0","p100257","3,0,0,8,7,6,1,4","R_2xSplCfTAKiGsVH","{""Q0"":""dog""}",0,"dog","lib/images/rottweiler_600x600.jpg","rottweiler","dog","wCZhbNgNAMINALPuLPFTxgxV","35","Male","Bachelor's Degree","No","","","","","","","dog","dogs","typical","rottweiler","rottweiler_mz_2","https://commons.wikimedia.org/wiki/File:02_I_Exposici%C3%B3n_Monogr%C3%A1fica_Club_Rottweiler_de_Espa%C3%B1a_-_Santa_Brigida_-_Gran_Canaria.jpg","rottweiler","_600x600.jpg","rottweiler_600x600.jpg","../images/rottweiler_600x600.jpg"
"",1365,"survey-text-columnResponse",3,15897,"0.0-3.0","p100257","3,0,0,8,7,6,1,4","R_2xSplCfTAKiGsVH","{""Q0"":""fish""}",0,"fish","lib/images/clownfish_600x600.jpg","clownfish","fish","wCZhbNgNAMINALPuLPFTxgxV","35","Male","Bachelor's Degree","No","","","","","","","fish","fish","typical","clownfish","clownfish_mz","https://unsplash.com/photos/rEM3cK8F1pk","clownfish","_600x600.jpg","clownfish_600x600.jpg","../images/clownfish_600x600.jpg"
"",1365,"survey-text-columnResponse",4,17465,"0.0-4.0","p100257","3,0,0,8,7,6,1,4","R_2xSplCfTAKiGsVH","{""Q0"":""cat""}",0,"cat","lib/images/toyger_600x600.jpg","toyger","cat","wCZhbNgNAMINALPuLPFTxgxV","35","Male","Bachelor's Degree","No","","","","","","","cat","cats","typical","toyger","toyger_mz_2","https://www.flickr.com/photos/erlon10/8088944726","toyger","_600x600.jpg","toyger_600x600.jpg","../images/toyger_600x600.jpg"
"",1129,"survey-text-columnResponse",5,18800,"0.0-5.0","p100257","3,0,0,8,7,6,1,4","R_2xSplCfTAKiGsVH","{""Q0"":""owl""}",0,"owl","lib/images/owl_600x600.jpg","owl","owl","wCZhbNgNAMINALPuLPFTxgxV","35","Male","Bachelor's Degree","No","","","","","","","bird","birds","atypical","owl","owl_boss","BOSS","owl","_600x600.jpg","owl_600x600.jpg","../images/owl_600x600.jpg"
"",1511,"survey-text-columnResponse",6,20514,"0.0-6.0","p100257","3,0,0,8,7,6,1,4","R_2xSplCfTAKiGsVH","{""Q0"":""horse""}",0,"horse","lib/images/horse.jpg","horse.jpg","horse","wCZhbNgNAMINALPuLPFTxgxV","35","Male","Bachelor's Degree","No","","","","","","",NA,NA,NA,NA,NA,NA,NA,NA,NA,NA
"",3079,"survey-text-columnResponse",7,23800,"0.0-7.0","p100257","3,0,0,8,7,6,1,4","R_2xSplCfTAKiGsVH","{""Q0"":""catfish""}",0,"catfish","lib/images/catfish_600x600.jpg","catfish","catfish","wCZhbNgNAMINALPuLPFTxgxV","35","Male","Bachelor's Degree","No","","","","","","","fish","fish","atypical","catfish","catfish_hw","https://commons.wikimedia.org/wiki/File:Blue_catfish_tenn_aquarium.JPG","catfish","_600x600.jpg","catfish_600x600.jpg","../images/catfish_600x600.jpg"
"",2778,"survey-text-columnResponse",8,26783,"0.0-8.0","p100257","3,0,0,8,7,6,1,4","R_2xSplCfTAKiGsVH","{""Q0"":""blue jay""}",0,"blue jay","lib/images/bluejay_600x600.jpg","bluejay","blue jay","wCZhbNgNAMINALPuLPFTxgxV","35","Male","Bachelor's Degree","No","","","","","","","bird","birds","typical","bluejay","bluejay_boss","BOSS","bluejay","_600x600.jpg","bluejay_600x600.jpg","../images/bluejay_600x600.jpg"
"",3405,"survey-text-columnResponse",9,30393,"0.0-9.0","p100257","3,0,0,8,7,6,1,4","R_2xSplCfTAKiGsVH","{""Q0"":""cat""}",0,"cat","lib/images/americancurl_600x600.jpg","americancurl","cat","wCZhbNgNAMINALPuLPFTxgxV","35","Male","Bachelor's Degree","No","","","","","","","cat","cats","atypical","American Curl","americancurl_mz_1","https://commons.wikimedia.org/wiki/File:American_curl_fond_blanc.jpg","americancurl","_600x600.jpg","americancurl_600x600.jpg","../images/americancurl_600x600.jpg"
"",1824,"survey-text-columnResponse",10,32423,"0.0-10.0","p100257","3,0,0,8,7,6,1,4","R_2xSplCfTAKiGsVH","{""Q0"":""dog""}",0,"dog","lib/images/yorkshireterrier_600x600.jpg","yorkshireterrier","dog","wCZhbNgNAMINALPuLPFTxgxV","35","Male","Bachelor's Degree","No","","","","","","","dog","dogs","atypical","yorkshire terrier","yorkshireterrier_hw","https://pixabay.com/photos/yorkshire-terrier-terrier-dog-361730/","yorkshireterrier","_600x600.jpg","yorkshireterrier_600x600.jpg","../images/yorkshireterrier_600x600.jpg"
"[{""page_index"":0,""viewing_time"":367792}]",367794,"instructions",0,367809,"0.0-0.0","p102430","2,2,5,6,0,1,0,2","R_2tm669lq18dmIOn","",NA,"","","","","TXmgOYWNAMINALUslvjFHlVb","40","Male","Bachelor's Degree","Yes","English","","","","","english",NA,NA,NA,NA,NA,NA,NA,NA,NA,NA
"",7669,"survey-text-columnResponse",1,375486,"0.0-1.0","p102430","2,2,5,6,0,1,0,2","R_2tm669lq18dmIOn","{""Q0"":""horse""}",0,"horse","lib/images/horse.jpg","horse.jpg","horse","TXmgOYWNAMINALUslvjFHlVb","40","Male","Bachelor's Degree","Yes","English","","","","","english",NA,NA,NA,NA,NA,NA,NA,NA,NA,NA
"",5850,"survey-text-columnResponse",2,381541,"0.0-2.0","p102430","2,2,5,6,0,1,0,2","R_2tm669lq18dmIOn","{""Q0"":""cat""}",0,"cat","lib/images/arabianmau_600x600.jpg","arabianmau","cat","TXmgOYWNAMINALUslvjFHlVb","40","Male","Bachelor's Degree","Yes","English","","","","","english","cat","cats","typical","mau","arabianmau_mz_1","https://commons.wikimedia.org/wiki/File:Arabian_Mau1.jpg","arabianmau","_600x600.jpg","arabianmau_600x600.jpg","../images/arabianmau_600x600.jpg"
"",6412,"survey-text-columnResponse",3,388157,"0.0-3.0","p102430","2,2,5,6,0,1,0,2","R_2tm669lq18dmIOn","{""Q0"":""dog""}",0,"dog","lib/images/afghanhound_600x600.jpg","afghanhound","dog","TXmgOYWNAMINALUslvjFHlVb","40","Male","Bachelor's Degree","Yes","English","","","","","english","dog","dogs","atypical","afghan hound","afghanhound_mz_1","https://commons.wikimedia.org/wiki/File:Arabian_Hound_001_U.jpg","afghanhound","_600x600.jpg","afghanhound_600x600.jpg","../images/afghanhound_600x600.jpg"
"",44803,"survey-text-columnResponse",4,433165,"0.0-4.0","p102430","2,2,5,6,0,1,0,2","R_2tm669lq18dmIOn","{""Q0"":""bird""}",0,"bird","lib/images/cedarwaxwing_600x600.jpg","cedarwaxwing","bird","TXmgOYWNAMINALUslvjFHlVb","40","Male","Bachelor's Degree","Yes","English","","","","","english","bird","birds","typical","cedar wax wing","cedarwaxwing_boss","BOSS","cedarwaxwing","_600x600.jpg","cedarwaxwing_600x600.jpg","../images/cedarwaxwing_600x600.jpg"
"",6379,"survey-text-columnResponse",5,439749,"0.0-5.0","p102430","2,2,5,6,0,1,0,2","R_2tm669lq18dmIOn","{""Q0"":""cat""}",0,"cat","lib/images/siamese_600x600.jpg","siamese","cat","TXmgOYWNAMINALUslvjFHlVb","40","Male","Bachelor's Degree","Yes","English","","","","","english","cat","cats","atypical","siamese","siamesecat_hw_2","https://pixabay.com/photos/cat-siamese-cat-fur-kitten-2068462/","siamese","_600x600.jpg","siamese_600x600.jpg","../images/siamese_600x600.jpg"
"",118608,"survey-text-columnResponse",6,558562,"0.0-6.0","p102430","2,2,5,6,0,1,0,2","R_2tm669lq18dmIOn","{""Q0"":""jiraffe""}",0,"jiraffe","lib/images/giraffe.jpg","giraffe.jpg","jiraffe","TXmgOYWNAMINALUslvjFHlVb","40","Male","Bachelor's Degree","Yes","English","","","","","english",NA,NA,NA,NA,NA,NA,NA,NA,NA,NA
"",10595,"survey-text-columnResponse",7,569362,"0.0-7.0","p102430","2,2,5,6,0,1,0,2","R_2tm669lq18dmIOn","{""Q0"":""bird""}",0,"bird","lib/images/kookaburra_600x600.jpg","kookaburra","bird","TXmgOYWNAMINALUslvjFHlVb","40","Male","Bachelor's Degree","Yes","English","","","","","english","bird","birds","atypical","kookaburra","kookaburra_mz_1","https://unsplash.com/photos/TwQP2gDmUJA","kookaburra","_600x600.jpg","kookaburra_600x600.jpg","../images/kookaburra_600x600.jpg"
"",5875,"survey-text-columnResponse",8,575442,"0.0-8.0","p102430","2,2,5,6,0,1,0,2","R_2tm669lq18dmIOn","{""Q0"":""fish""}",0,"fish","lib/images/bluetang_600x600.jpg","bluetang","fish","TXmgOYWNAMINALUslvjFHlVb","40","Male","Bachelor's Degree","Yes","English","","","","","english","fish","fish","typical","blue tang","bluetang_mz_2","https://unsplash.com/photos/9FvTOCfvt_w","bluetang","_600x600.jpg","bluetang_600x600.jpg","../images/bluetang_600x600.jpg"
"",4964,"survey-text-columnResponse",9,580610,"0.0-9.0","p102430","2,2,5,6,0,1,0,2","R_2tm669lq18dmIOn","{""Q0"":""dog""}",0,"dog","lib/images/beagle_600x600.jpg","beagle","dog","TXmgOYWNAMINALUslvjFHlVb","40","Male","Bachelor's Degree","Yes","English","","","","","english","dog","dogs","typical","beagle","beagle_mz_4","https://commons.wikimedia.org/wiki/File:Beagle_1.jpg","beagle","_600x600.jpg","beagle_600x600.jpg","../images/beagle_600x600.jpg"
"",5483,"survey-text-columnResponse",10,586298,"0.0-10.0","p102430","2,2,5,6,0,1,0,2","R_2tm669lq18dmIOn","{""Q0"":""fish""}",0,"fish","lib/images/betafish_600x600.jpg","betafish","fish","TXmgOYWNAMINALUslvjFHlVb","40","Male","Bachelor's Degree","Yes","English","","","","","english","fish","fish","atypical","beta  fish","betafish_mz_1","https://commons.wikimedia.org/wiki/File:Male_Betta_-34245661920.jpg","betafish","_600x600.jpg","betafish_600x600.jpg","../images/betafish_600x600.jpg"
"[{""page_index"":0,""viewing_time"":15416}]",15419,"instructions",0,15554,"0.0-0.0","p103949","2,6,7,2,2,3,3,0","R_3M6cqsRjxJYtxOD","",NA,"","","","","nxEJpCMNAMINALDpYvVoferD","42","Female","Some College","No","","","","","","",NA,NA,NA,NA,NA,NA,NA,NA,NA,NA
"",8640,"survey-text-columnResponse",1,24206,"0.0-1.0","p103949","2,6,7,2,2,3,3,0","R_3M6cqsRjxJYtxOD","{""Q0"":""horse""}",0,"horse","lib/images/horse.jpg","horse.jpg","horse","nxEJpCMNAMINALDpYvVoferD","42","Female","Some College","No","","","","","","",NA,NA,NA,NA,NA,NA,NA,NA,NA,NA
"",7074,"survey-text-columnResponse",2,31487,"0.0-2.0","p103949","2,6,7,2,2,3,3,0","R_3M6cqsRjxJYtxOD","{""Q0"":""dog""}",0,"dog","lib/images/germanshepherd_600x600.jpg","germanshepherd","dog","nxEJpCMNAMINALDpYvVoferD","42","Female","Some College","No","","","","","","","dog","dogs","typical","german shepherd","germanshepherd_mz_1","https://commons.wikimedia.org/wiki/File:02.Owczarek_niemiecki_u%C5%BCytkowy_kr%C3%B3tkow%C5%82osy_suka.jpg","germanshepherd","_600x600.jpg","germanshepherd_600x600.jpg","../images/germanshepherd_600x600.jpg"
"",6120,"survey-text-columnResponse",3,37815,"0.0-3.0","p103949","2,6,7,2,2,3,3,0","R_3M6cqsRjxJYtxOD","{""Q0"":""fish""}",0,"fish","lib/images/angelfish_600x600.jpg","angelfish","fish","nxEJpCMNAMINALDpYvVoferD","42","Female","Some College","No","","","","","","","fish","fish","typical","angelfish","angelfish_mz_2","https://www.pexels.com/photo/angel-fish-blueface-angel-coral-marine-fish-1699246/","angelfish","_600x600.jpg","angelfish_600x600.jpg","../images/angelfish_600x600.jpg"
"",7699,"survey-text-columnResponse",4,45721,"0.0-4.0","p103949","2,6,7,2,2,3,3,0","R_3M6cqsRjxJYtxOD","{""Q0"":""lion fish""}",0,"lion fish","lib/images/lionfish_600x600.jpg","lionfish","lion fish","nxEJpCMNAMINALDpYvVoferD","42","Female","Some College","No","","","","","","","fish","fish","atypical","lion fish","lionfish_mz","https://unsplash.com/photos/gULJzSnDuZU","lionfish","_600x600.jpg","lionfish_600x600.jpg","../images/lionfish_600x600.jpg"
"",4302,"survey-text-columnResponse",5,50231,"0.0-5.0","p103949","2,6,7,2,2,3,3,0","R_3M6cqsRjxJYtxOD","{""Q0"":""dog""}",0,"dog","lib/images/chihuahua_600x600.jpg","chihuahua","dog","nxEJpCMNAMINALDpYvVoferD","42","Female","Some College","No","","","","","","","dog","dogs","atypical","chihuahua","chihuahua_mz_4","https://www.pxfuel.com/en/free-photo-ojhbm","chihuahua","_600x600.jpg","chihuahua_600x600.jpg","../images/chihuahua_600x600.jpg"
"",7606,"survey-text-columnResponse",6,58099,"0.0-6.0","p103949","2,6,7,2,2,3,3,0","R_3M6cqsRjxJYtxOD","{""Q0"":""giraffe ""}",0,"giraffe ","lib/images/giraffe.jpg","giraffe.jpg","giraffe","nxEJpCMNAMINALDpYvVoferD","42","Female","Some College","No","","","","","","",NA,NA,NA,NA,NA,NA,NA,NA,NA,NA
"",4605,"survey-text-columnResponse",7,62912,"0.0-7.0","p103949","2,6,7,2,2,3,3,0","R_3M6cqsRjxJYtxOD","{""Q0"":""cat""}",0,"cat","lib/images/britishshorthair_600x600.jpg","britishshorthair","cat","nxEJpCMNAMINALDpYvVoferD","42","Female","Some College","No","","","","","","","cat","cats","typical","british shorthair","britishshorthair_mz_2","https://commons.wikimedia.org/wiki/File:British_Shorthair._Female._18_months_old.jpg","britishshorthair","_600x600.jpg","britishshorthair_600x600.jpg","../images/britishshorthair_600x600.jpg"
"",7548,"survey-text-columnResponse",8,70668,"0.0-8.0","p103949","2,6,7,2,2,3,3,0","R_3M6cqsRjxJYtxOD","{""Q0"":""pigeon ""}",0,"pigeon ","lib/images/pigeon_600x600.jpg","pigeon","pigeon","nxEJpCMNAMINALDpYvVoferD","42","Female","Some College","No","","","","","","","bird","birds","typical","pigeon","pigeon_mz","https://upload.wikimedia.org/wikipedia/commons/4/43/Common_pigeon_-_Piccione_selvatico_occidentale_%28Columba_livia%29.jpg","pigeon","_600x600.jpg","pigeon_600x600.jpg","../images/pigeon_600x600.jpg"
"",3937,"survey-text-columnResponse",9,74814,"0.0-9.0","p103949","2,6,7,2,2,3,3,0","R_3M6cqsRjxJYtxOD","{""Q0"":""cat""}",0,"cat","lib/images/sphynx_600x600.jpg","sphynx","cat","nxEJpCMNAMINALDpYvVoferD","42","Female","Some College","No","","","","","","","cat","cats","atypical","sphynx","sphynx_mz_4","https://commons.wikimedia.org/wiki/File:Sphynx_-_cat._img_046.jpg","sphynx","_600x600.jpg","sphynx_600x600.jpg","../images/sphynx_600x600.jpg"
"",4095,"survey-text-columnResponse",10,79117,"0.0-10.0","p103949","2,6,7,2,2,3,3,0","R_3M6cqsRjxJYtxOD","{""Q0"":""bird""}",0,"bird","lib/images/kookaburra_600x600.jpg","kookaburra","bird","nxEJpCMNAMINALDpYvVoferD","42","Female","Some College","No","","","","","","","bird","birds","atypical","kookaburra","kookaburra_mz_1","https://unsplash.com/photos/TwQP2gDmUJA","kookaburra","_600x600.jpg","kookaburra_600x600.jpg","../images/kookaburra_600x600.jpg"
"[{""page_index"":0,""viewing_time"":1738}]",1739,"instructions",0,1804,"0.0-0.0","p105540","3,3,5,5,5,7,1,7","R_2U5Ebynf3Tu85Ck","",NA,"","","","","YLLpOBjNAMINALBhgtsZaDJQ","27","Female","Bachelor's Degree","No","","","","","","",NA,NA,NA,NA,NA,NA,NA,NA,NA,NA
"",4953,"survey-text-columnResponse",1,6764,"0.0-1.0","p105540","3,3,5,5,5,7,1,7","R_2U5Ebynf3Tu85Ck","{""Q0"":""horse""}",0,"horse","lib/images/horse.jpg","horse.jpg","horse","YLLpOBjNAMINALBhgtsZaDJQ","27","Female","Bachelor's Degree","No","","","","","","",NA,NA,NA,NA,NA,NA,NA,NA,NA,NA
"",4530,"survey-text-columnResponse",2,11498,"0.0-2.0","p105540","3,3,5,5,5,7,1,7","R_2U5Ebynf3Tu85Ck","{""Q0"":""catfish""}",0,"catfish","lib/images/catfish_600x600.jpg","catfish","catfish","YLLpOBjNAMINALBhgtsZaDJQ","27","Female","Bachelor's Degree","No","","","","","","","fish","fish","atypical","catfish","catfish_hw","https://commons.wikimedia.org/wiki/File:Blue_catfish_tenn_aquarium.JPG","catfish","_600x600.jpg","catfish_600x600.jpg","../images/catfish_600x600.jpg"
"",2409,"survey-text-columnResponse",3,14119,"0.0-3.0","p105540","3,3,5,5,5,7,1,7","R_2U5Ebynf3Tu85Ck","{""Q0"":""cat""}",0,"cat","lib/images/chartreux_600x600.jpg","chartreux","cat","YLLpOBjNAMINALBhgtsZaDJQ","27","Female","Bachelor's Degree","No","","","","","","","cat","cats","typical","chartreux","chartreux_mz_2","https://www.pexels.com/photo/animals-cat-chartreux-mieze-357182/","chartreux","_600x600.jpg","chartreux_600x600.jpg","../images/chartreux_600x600.jpg"
"",2528,"survey-text-columnResponse",4,16854,"0.0-4.0","p105540","3,3,5,5,5,7,1,7","R_2U5Ebynf3Tu85Ck","{""Q0"":""owl""}",0,"owl","lib/images/owl_600x600.jpg","owl","owl","YLLpOBjNAMINALBhgtsZaDJQ","27","Female","Bachelor's Degree","No","","","","","","","bird","birds","atypical","owl","owl_boss","BOSS","owl","_600x600.jpg","owl_600x600.jpg","../images/owl_600x600.jpg"
"",8177,"survey-text-columnResponse",5,25237,"0.0-5.0","p105540","3,3,5,5,5,7,1,7","R_2U5Ebynf3Tu85Ck","{""Q0"":""fish""}",0,"fish","lib/images/sergeantmajor_600x600.jpg","sergeantmajor","fish","YLLpOBjNAMINALBhgtsZaDJQ","27","Female","Bachelor's Degree","No","","","","","","","fish","fish","typical","sergeant major","sergeantmajor_hw_1","https://unsplash.com/photos/mjPMBpsxICY","sergeantmajor","_600x600.jpg","sergeantmajor_600x600.jpg","../images/sergeantmajor_600x600.jpg"
"",5616,"survey-text-columnResponse",6,31071,"0.0-6.0","p105540","3,3,5,5,5,7,1,7","R_2U5Ebynf3Tu85Ck","{""Q0"":""giraffe""}",0,"giraffe","lib/images/giraffe.jpg","giraffe.jpg","giraffe","YLLpOBjNAMINALBhgtsZaDJQ","27","Female","Bachelor's Degree","No","","","","","","",NA,NA,NA,NA,NA,NA,NA,NA,NA,NA
"",3762,"survey-text-columnResponse",7,35039,"0.0-7.0","p105540","3,3,5,5,5,7,1,7","R_2U5Ebynf3Tu85Ck","{""Q0"":""hawk""}",0,"hawk","lib/images/falcon_600x600.jpg","falcon","hawk","YLLpOBjNAMINALBhgtsZaDJQ","27","Female","Bachelor's Degree","No","","","","","","","bird","birds","typical","falcon","falcon_mz_1","https://upload.wikimedia.org/wikipedia/commons/9/9a/Falco_peregrinus_good_-_Christopher_Watson.jpg","falcon","_600x600.jpg","falcon_600x600.jpg","../images/falcon_600x600.jpg"
"",9911,"survey-text-columnResponse",8,45156,"0.0-8.0","p105540","3,3,5,5,5,7,1,7","R_2U5Ebynf3Tu85Ck","{""Q0"":""dog""}",0,"dog","lib/images/saintbernard_600x600.jpg","saintbernard","dog","YLLpOBjNAMINALBhgtsZaDJQ","27","Female","Bachelor's Degree","No","","","","","","","dog","dogs","atypical","saint bernard","saintbernard_boss","BOSS","saintbernard","_600x600.jpg","saintbernard_600x600.jpg","../images/saintbernard_600x600.jpg"
"",3318,"survey-text-columnResponse",9,48681,"0.0-9.0","p105540","3,3,5,5,5,7,1,7","R_2U5Ebynf3Tu85Ck","{""Q0"":""husky""}",0,"husky","lib/images/husky_600x600.jpg","husky","husky","YLLpOBjNAMINALBhgtsZaDJQ","27","Female","Bachelor's Degree","No","","","","","","","dog","dogs","typical","siberian husky","husky_hw","https://pixabay.com/photos/dog-husky-sled-dog-animal-2016708/","husky","_600x600.jpg","husky_600x600.jpg","../images/husky_600x600.jpg"
"",2950,"survey-text-columnResponse",10,51840,"0.0-10.0","p105540","3,3,5,5,5,7,1,7","R_2U5Ebynf3Tu85Ck","{""Q0"":""cat""}",0,"cat","lib/images/siamese_600x600.jpg","siamese","cat","YLLpOBjNAMINALBhgtsZaDJQ","27","Female","Bachelor's Degree","No","","","","","","","cat","cats","atypical","siamese","siamesecat_hw_2","https://pixabay.com/photos/cat-siamese-cat-fur-kitten-2068462/","siamese","_600x600.jpg","siamese_600x600.jpg","../images/siamese_600x600.jpg"
"[{""page_index"":0,""viewing_time"":4622}]",4624,"instructions",0,4678,"0.0-0.0","p110194","8,7,3,8,2,7,1,6","R_1Tu4XB5YPxhD47T","",NA,"","","","","GHgZWMwNAMINALDTXhRrZCBL","35","Female","Associate's Degree/technical school","No","","","","","","",NA,NA,NA,NA,NA,NA,NA,NA,NA,NA
"",4755,"survey-text-columnResponse",1,9440,"0.0-1.0","p110194","8,7,3,8,2,7,1,6","R_1Tu4XB5YPxhD47T","{""Q0"":""horse""}",0,"horse","lib/images/horse.jpg","horse.jpg","horse","GHgZWMwNAMINALDTXhRrZCBL","35","Female","Associate's Degree/technical school","No","","","","","","",NA,NA,NA,NA,NA,NA,NA,NA,NA,NA
"",4310,"survey-text-columnResponse",2,13957,"0.0-2.0","p110194","8,7,3,8,2,7,1,6","R_1Tu4XB5YPxhD47T","{""Q0"":""fish""}",0,"fish","lib/images/koi_600x600.jpg","koi","fish","GHgZWMwNAMINALDTXhRrZCBL","35","Female","Associate's Degree/technical school","No","","","","","","","fish","fish","typical","koi","koi_mz","https://www.flickr.com/photos/oregonstateuniversity/13311666853","koi","_600x600.jpg","koi_600x600.jpg","../images/koi_600x600.jpg"
"",3954,"survey-text-columnResponse",3,18116,"0.0-3.0","p110194","8,7,3,8,2,7,1,6","R_1Tu4XB5YPxhD47T","{""Q0"":""dog""}",0,"dog","lib/images/chihuahua_600x600.jpg","chihuahua","dog","GHgZWMwNAMINALDTXhRrZCBL","35","Female","Associate's Degree/technical school","No","","","","","","","dog","dogs","atypical","chihuahua","chihuahua_mz_4","https://www.pxfuel.com/en/free-photo-ojhbm","chihuahua","_600x600.jpg","chihuahua_600x600.jpg","../images/chihuahua_600x600.jpg"
"",6419,"survey-text-columnResponse",4,24743,"0.0-4.0","p110194","8,7,3,8,2,7,1,6","R_1Tu4XB5YPxhD47T","{""Q0"":""dog""}",0,"dog","lib/images/husky_600x600.jpg","husky","dog","GHgZWMwNAMINALDTXhRrZCBL","35","Female","Associate's Degree/technical school","No","","","","","","","dog","dogs","typical","siberian husky","husky_hw","https://pixabay.com/photos/dog-husky-sled-dog-animal-2016708/","husky","_600x600.jpg","husky_600x600.jpg","../images/husky_600x600.jpg"
"",6461,"survey-text-columnResponse",5,31411,"0.0-5.0","p110194","8,7,3,8,2,7,1,6","R_1Tu4XB5YPxhD47T","{""Q0"":""turkey""}",0,"turkey","lib/images/turkey_600x600.jpg","turkey","turkey","GHgZWMwNAMINALDTXhRrZCBL","35","Female","Associate's Degree/technical school","No","","","","","","","bird","birds","atypical","turkey","turkey_boss","BOSS","turkey","_600x600.jpg","turkey_600x600.jpg","../images/turkey_600x600.jpg"
"",4674,"survey-text-columnResponse",6,36293,"0.0-6.0","p110194","8,7,3,8,2,7,1,6","R_1Tu4XB5YPxhD47T","{""Q0"":""giraffe""}",0,"giraffe","lib/images/giraffe.jpg","giraffe.jpg","giraffe","GHgZWMwNAMINALDTXhRrZCBL","35","Female","Associate's Degree/technical school","No","","","","","","",NA,NA,NA,NA,NA,NA,NA,NA,NA,NA
"",7094,"survey-text-columnResponse",7,43594,"0.0-7.0","p110194","8,7,3,8,2,7,1,6","R_1Tu4XB5YPxhD47T","{""Q0"":""bird""}",0,"bird","lib/images/robin_600x600.jpg","robin","bird","GHgZWMwNAMINALDTXhRrZCBL","35","Female","Associate's Degree/technical school","No","","","","","","","bird","birds","typical","robin","robin_mz","https://unsplash.com/photos/rP4IAAk3hGw","robin","_600x600.jpg","robin_600x600.jpg","../images/robin_600x600.jpg"
"",3888,"survey-text-columnResponse",8,47687,"0.0-8.0","p110194","8,7,3,8,2,7,1,6","R_1Tu4XB5YPxhD47T","{""Q0"":""cat""}",0,"cat","lib/images/oriental_600x600.jpg","oriental","cat","GHgZWMwNAMINALDTXhRrZCBL","35","Female","Associate's Degree/technical school","No","","","","","","","cat","cats","atypical","oriental","oriental_mz","https://en.wikipedia.org/wiki/File:Fatale_de_la_l%C3%A9gende_d%27ali.jpg","oriental","_600x600.jpg","oriental_600x600.jpg","../images/oriental_600x600.jpg"
"",3461,"survey-text-columnResponse",9,51355,"0.0-9.0","p110194","8,7,3,8,2,7,1,6","R_1Tu4XB5YPxhD47T","{""Q0"":""cat""}",0,"cat","lib/images/toyger_600x600.jpg","toyger","cat","GHgZWMwNAMINALDTXhRrZCBL","35","Female","Associate's Degree/technical school","No","","","","","","","cat","cats","typical","toyger","toyger_mz_2","https://www.flickr.com/photos/erlon10/8088944726","toyger","_600x600.jpg","toyger_600x600.jpg","../images/toyger_600x600.jpg"
"",4522,"survey-text-columnResponse",10,56083,"0.0-10.0","p110194","8,7,3,8,2,7,1,6","R_1Tu4XB5YPxhD47T","{""Q0"":""fish""}",0,"fish","lib/images/catfish_600x600.jpg","catfish","fish","GHgZWMwNAMINALDTXhRrZCBL","35","Female","Associate's Degree/technical school","No","","","","","","","fish","fish","atypical","catfish","catfish_hw","https://commons.wikimedia.org/wiki/File:Blue_catfish_tenn_aquarium.JPG","catfish","_600x600.jpg","catfish_600x600.jpg","../images/catfish_600x600.jpg"
"[{""page_index"":0,""viewing_time"":2491}]",2492,"instructions",0,2512,"0.0-0.0","p113195","9,1,2,3,4,5,0,1","R_2zSkIHmBuZYGEto","",NA,"","","","","OJxOOuFNAMINALMRUmwLLRcP","35","Female","High School / GED","No","","","","","","",NA,NA,NA,NA,NA,NA,NA,NA,NA,NA
"",5147,"survey-text-columnResponse",1,7661,"0.0-1.0","p113195","9,1,2,3,4,5,0,1","R_2zSkIHmBuZYGEto","{""Q0"":""giraffe""}",0,"giraffe","lib/images/giraffe.jpg","giraffe.jpg","giraffe","OJxOOuFNAMINALMRUmwLLRcP","35","Female","High School / GED","No","","","","","","",NA,NA,NA,NA,NA,NA,NA,NA,NA,NA
"",3773,"survey-text-columnResponse",2,11638,"0.0-2.0","p113195","9,1,2,3,4,5,0,1","R_2zSkIHmBuZYGEto","{""Q0"":""dog""}",0,"dog","lib/images/labrador_600x600.jpg","labrador","dog","OJxOOuFNAMINALMRUmwLLRcP","35","Female","High School / GED","No","","","","","","","dog","dogs","typical","labrador retriever","labrador_mz_1","https://commons.wikimedia.org/wiki/File:Black_labrador_retriever.jpg","labrador","_600x600.jpg","labrador_600x600.jpg","../images/labrador_600x600.jpg"
"",3442,"survey-text-columnResponse",3,15284,"0.0-3.0","p113195","9,1,2,3,4,5,0,1","R_2zSkIHmBuZYGEto","{""Q0"":""cat""}",0,"cat","lib/images/shorthair_calico_600x600.jpg","shorthair_calico","cat","OJxOOuFNAMINALMRUmwLLRcP","35","Female","High School / GED","No","","","","","","","cat","cats","typical","british shorthair","britishshorthair_calico_mz","https://commons.wikimedia.org/wiki/File:British_shorthair_with_calico_coat_(2).jpg","shorthair_calico","_600x600.jpg","shorthair_calico_600x600.jpg","../images/shorthair_calico_600x600.jpg"
"",5471,"survey-text-columnResponse",4,20957,"0.0-4.0","p113195","9,1,2,3,4,5,0,1","R_2zSkIHmBuZYGEto","{""Q0"":""dog""}",0,"dog","lib/images/pug_600x600.jpg","pug","dog","OJxOOuFNAMINALMRUmwLLRcP","35","Female","High School / GED","No","","","","","","","dog","dogs","atypical","pug","pug_mz","https://commons.wikimedia.org/wiki/File:Mops_oct09_cropped2.jpg","pug","_600x600.jpg","pug_600x600.jpg","../images/pug_600x600.jpg"
"",3905,"survey-text-columnResponse",5,25064,"0.0-5.0","p113195","9,1,2,3,4,5,0,1","R_2zSkIHmBuZYGEto","{""Q0"":""fish""}",0,"fish","lib/images/betafish_600x600.jpg","betafish","fish","OJxOOuFNAMINALMRUmwLLRcP","35","Female","High School / GED","No","","","","","","","fish","fish","atypical","beta  fish","betafish_mz_1","https://commons.wikimedia.org/wiki/File:Male_Betta_-34245661920.jpg","betafish","_600x600.jpg","betafish_600x600.jpg","../images/betafish_600x600.jpg"
"",3702,"survey-text-columnResponse",6,28971,"0.0-6.0","p113195","9,1,2,3,4,5,0,1","R_2zSkIHmBuZYGEto","{""Q0"":""horse""}",0,"horse","lib/images/horse.jpg","horse.jpg","horse","OJxOOuFNAMINALMRUmwLLRcP","35","Female","High School / GED","No","","","","","","",NA,NA,NA,NA,NA,NA,NA,NA,NA,NA
"",7362,"survey-text-columnResponse",7,36539,"0.0-7.0","p113195","9,1,2,3,4,5,0,1","R_2zSkIHmBuZYGEto","{""Q0"":""bird""}",0,"bird","lib/images/vulture_600x600.jpg","vulture","bird","OJxOOuFNAMINALMRUmwLLRcP","35","Female","High School / GED","No","","","","","","","bird","birds","atypical","vulture","vulture_boss","BOSS","vulture","_600x600.jpg","vulture_600x600.jpg","../images/vulture_600x600.jpg"
"",4378,"survey-text-columnResponse",8,41121,"0.0-8.0","p113195","9,1,2,3,4,5,0,1","R_2zSkIHmBuZYGEto","{""Q0"":""fish""}",0,"fish","lib/images/bass_600x600.jpg","bass","fish","OJxOOuFNAMINALMRUmwLLRcP","35","Female","High School / GED","No","","","","","","","fish","fish","typical","bass","rockbass_boss","BOSS","bass","_600x600.jpg","bass_600x600.jpg","../images/bass_600x600.jpg"
"",3280,"survey-text-columnResponse",9,44605,"0.0-9.0","p113195","9,1,2,3,4,5,0,1","R_2zSkIHmBuZYGEto","{""Q0"":""bird""}",0,"bird","lib/images/cardinal_600x600.jpg","cardinal","bird","OJxOOuFNAMINALMRUmwLLRcP","35","Female","High School / GED","No","","","","","","","bird","birds","typical","cardinal","cardinal_mz_2","https://unsplash.com/photos/BxmvI3hutWs","cardinal","_600x600.jpg","cardinal_600x600.jpg","../images/cardinal_600x600.jpg"
"",3762,"survey-text-columnResponse",10,48571,"0.0-10.0","p113195","9,1,2,3,4,5,0,1","R_2zSkIHmBuZYGEto","{""Q0"":""cat""}",0,"cat","lib/images/exotic_600x600.jpg","exotic","cat","OJxOOuFNAMINALMRUmwLLRcP","35","Female","High School / GED","No","","","","","","","cat","cats","atypical","exotic","exotic_mz_1","https://commons.wikimedia.org/wiki/File:Exotic_Shorthair.jpg","exotic","_600x600.jpg","exotic_600x600.jpg","../images/exotic_600x600.jpg"
"[{""page_index"":0,""viewing_time"":20751}]",20752,"instructions",0,20763,"0.0-0.0","p114011","3,7,1,1,6,7,4,1","R_1JXSwxVPMeqmK19","",NA,"","","","","scxWXBlNAMINALBnpnLDcNns","27","Female","Bachelor's Degree","No","","","","","","",NA,NA,NA,NA,NA,NA,NA,NA,NA,NA
"",6926,"survey-text-columnResponse",1,27693,"0.0-1.0","p114011","3,7,1,1,6,7,4,1","R_1JXSwxVPMeqmK19","{""Q0"":""giraffe""}",0,"giraffe","lib/images/giraffe.jpg","giraffe.jpg","giraffe","scxWXBlNAMINALBnpnLDcNns","27","Female","Bachelor's Degree","No","","","","","","",NA,NA,NA,NA,NA,NA,NA,NA,NA,NA
"",11978,"survey-text-columnResponse",2,39875,"0.0-2.0","p114011","3,7,1,1,6,7,4,1","R_1JXSwxVPMeqmK19","{""Q0"":""Cat""}",0,"Cat","lib/images/cornishrex_600x600.jpg","cornishrex","cat","scxWXBlNAMINALBnpnLDcNns","27","Female","Bachelor's Degree","No","","","","","","","cat","cats","atypical","Cornish rex","cornishrex_mz_1","https://commons.wikimedia.org/wiki/File:Cornish_Rex.jpg","cornishrex","_600x600.jpg","cornishrex_600x600.jpg","../images/cornishrex_600x600.jpg"
"",9736,"survey-text-columnResponse",3,49816,"0.0-3.0","p114011","3,7,1,1,6,7,4,1","R_1JXSwxVPMeqmK19","{""Q0"":""Bird""}",0,"Bird","lib/images/robin_600x600.jpg","robin","bird","scxWXBlNAMINALBnpnLDcNns","27","Female","Bachelor's Degree","No","","","","","","","bird","birds","typical","robin","robin_mz","https://unsplash.com/photos/rP4IAAk3hGw","robin","_600x600.jpg","robin_600x600.jpg","../images/robin_600x600.jpg"
"",17055,"survey-text-columnResponse",4,67075,"0.0-4.0","p114011","3,7,1,1,6,7,4,1","R_1JXSwxVPMeqmK19","{""Q0"":""Siberian Husky""}",0,"Siberian Husky","lib/images/husky_600x600.jpg","husky","siberian husky","scxWXBlNAMINALBnpnLDcNns","27","Female","Bachelor's Degree","No","","","","","","","dog","dogs","typical","siberian husky","husky_hw","https://pixabay.com/photos/dog-husky-sled-dog-animal-2016708/","husky","_600x600.jpg","husky_600x600.jpg","../images/husky_600x600.jpg"
"",7685,"survey-text-columnResponse",5,74962,"0.0-5.0","p114011","3,7,1,1,6,7,4,1","R_1JXSwxVPMeqmK19","{""Q0"":""Shaggy dog""}",0,"Shaggy dog","lib/images/sheepdog_600x600.jpg","sheepdog","shaggy dog","scxWXBlNAMINALBnpnLDcNns","27","Female","Bachelor's Degree","No","","","","","","","dog","dogs","atypical","sheepdog","sheepdog_er","EmbersonRubenstein","sheepdog","_600x600.jpg","sheepdog_600x600.jpg","../images/sheepdog_600x600.jpg"
"",4249,"survey-text-columnResponse",6,79415,"0.0-6.0","p114011","3,7,1,1,6,7,4,1","R_1JXSwxVPMeqmK19","{""Q0"":""Horse""}",0,"Horse","lib/images/horse.jpg","horse.jpg","horse","scxWXBlNAMINALBnpnLDcNns","27","Female","Bachelor's Degree","No","","","","","","",NA,NA,NA,NA,NA,NA,NA,NA,NA,NA
"",52639,"survey-text-columnResponse",7,132260,"0.0-7.0","p114011","3,7,1,1,6,7,4,1","R_1JXSwxVPMeqmK19","{""Q0"":""Fish""}",0,"Fish","lib/images/bass_600x600.jpg","bass","fish","scxWXBlNAMINALBnpnLDcNns","27","Female","Bachelor's Degree","No","","","","","","","fish","fish","typical","bass","rockbass_boss","BOSS","bass","_600x600.jpg","bass_600x600.jpg","../images/bass_600x600.jpg"
"",110947,"survey-text-columnResponse",8,243412,"0.0-8.0","p114011","3,7,1,1,6,7,4,1","R_1JXSwxVPMeqmK19","{""Q0"":""great horned owl""}",0,"great horned owl","lib/images/owl_600x600.jpg","owl","great horned owl","scxWXBlNAMINALBnpnLDcNns","27","Female","Bachelor's Degree","No","","","","","","","bird","birds","atypical","owl","owl_boss","BOSS","owl","_600x600.jpg","owl_600x600.jpg","../images/owl_600x600.jpg"
"",17682,"survey-text-columnResponse",9,261298,"0.0-9.0","p114011","3,7,1,1,6,7,4,1","R_1JXSwxVPMeqmK19","{""Q0"":""Bengal Cat""}",0,"Bengal Cat","lib/images/bengal_600x600.jpg","bengal","bengal cat","scxWXBlNAMINALBnpnLDcNns","27","Female","Bachelor's Degree","No","","","","","","","cat","cats","typical","bengal","bengal_mz_4","https://commons.wikimedia.org/wiki/File:Brown_spotted_tabby_bengal_cat.jpg","bengal","_600x600.jpg","bengal_600x600.jpg","../images/bengal_600x600.jpg"
"",19843,"survey-text-columnResponse",10,281342,"0.0-10.0","p114011","3,7,1,1,6,7,4,1","R_1JXSwxVPMeqmK19","{""Q0"":""Pufferfish""}",0,"Pufferfish","lib/images/pufferfish_600x600.jpg","pufferfish","pufferfish","scxWXBlNAMINALBnpnLDcNns","27","Female","Bachelor's Degree","No","","","","","","","fish","fish","atypical","pufferfish","pufferfish_er","EmbersonRubenstein","pufferfish","_600x600.jpg","pufferfish_600x600.jpg","../images/pufferfish_600x600.jpg"
"[{""page_index"":0,""viewing_time"":4368}]",4368,"instructions",0,4372,"0.0-0.0","p114598","0,9,5,5,0,1,7,3","R_1nVojIlZuZTBGjM","",NA,"","","","","hRlOEAfNAMINALomvefwwbYM","41","Male","Bachelor's Degree","No","","","","","","",NA,NA,NA,NA,NA,NA,NA,NA,NA,NA
"",3115,"survey-text-columnResponse",1,7492,"0.0-1.0","p114598","0,9,5,5,0,1,7,3","R_1nVojIlZuZTBGjM","{""Q0"":""horse""}",0,"horse","lib/images/horse.jpg","horse.jpg","horse","hRlOEAfNAMINALomvefwwbYM","41","Male","Bachelor's Degree","No","","","","","","",NA,NA,NA,NA,NA,NA,NA,NA,NA,NA
"",2738,"survey-text-columnResponse",2,10434,"0.0-2.0","p114598","0,9,5,5,0,1,7,3","R_1nVojIlZuZTBGjM","{""Q0"":""beagle""}",0,"beagle","lib/images/beagle_600x600.jpg","beagle","beagle","hRlOEAfNAMINALomvefwwbYM","41","Male","Bachelor's Degree","No","","","","","","","dog","dogs","typical","beagle","beagle_mz_4","https://commons.wikimedia.org/wiki/File:Beagle_1.jpg","beagle","_600x600.jpg","beagle_600x600.jpg","../images/beagle_600x600.jpg"
"",2859,"survey-text-columnResponse",3,13496,"0.0-3.0","p114598","0,9,5,5,0,1,7,3","R_1nVojIlZuZTBGjM","{""Q0"":""ray""}",0,"ray","lib/images/stingray_600x600.jpg","stingray","ray","hRlOEAfNAMINALomvefwwbYM","41","Male","Bachelor's Degree","No","","","","","","","fish","fish","atypical","stingray","stingray_boss","BOSS","stingray","_600x600.jpg","stingray_600x600.jpg","../images/stingray_600x600.jpg"
"",3042,"survey-text-columnResponse",4,16739,"0.0-4.0","p114598","0,9,5,5,0,1,7,3","R_1nVojIlZuZTBGjM","{""Q0"":""cat""}",0,"cat","lib/images/chartreux_600x600.jpg","chartreux","cat","hRlOEAfNAMINALomvefwwbYM","41","Male","Bachelor's Degree","No","","","","","","","cat","cats","typical","chartreux","chartreux_mz_2","https://www.pexels.com/photo/animals-cat-chartreux-mieze-357182/","chartreux","_600x600.jpg","chartreux_600x600.jpg","../images/chartreux_600x600.jpg"
"",2118,"survey-text-columnResponse",5,19061,"0.0-5.0","p114598","0,9,5,5,0,1,7,3","R_1nVojIlZuZTBGjM","{""Q0"":""fish""}",0,"fish","lib/images/bluegill_600x600.jpg","bluegill","fish","hRlOEAfNAMINALomvefwwbYM","41","Male","Bachelor's Degree","No","","","","","","","fish","fish","typical","bluegill","bluegill_mz","https://commons.wikimedia.org/wiki/File:Bluegill_(fish).jpg","bluegill","_600x600.jpg","bluegill_600x600.jpg","../images/bluegill_600x600.jpg"
"",4010,"survey-text-columnResponse",6,23273,"0.0-6.0","p114598","0,9,5,5,0,1,7,3","R_1nVojIlZuZTBGjM","{""Q0"":""giraffe""}",0,"giraffe","lib/images/giraffe.jpg","giraffe.jpg","giraffe","hRlOEAfNAMINALomvefwwbYM","41","Male","Bachelor's Degree","No","","","","","","",NA,NA,NA,NA,NA,NA,NA,NA,NA,NA
"",2566,"survey-text-columnResponse",7,26041,"0.0-7.0","p114598","0,9,5,5,0,1,7,3","R_1nVojIlZuZTBGjM","{""Q0"":""cat""}",0,"cat","lib/images/siamese_600x600.jpg","siamese","cat","hRlOEAfNAMINALomvefwwbYM","41","Male","Bachelor's Degree","No","","","","","","","cat","cats","atypical","siamese","siamesecat_hw_2","https://pixabay.com/photos/cat-siamese-cat-fur-kitten-2068462/","siamese","_600x600.jpg","siamese_600x600.jpg","../images/siamese_600x600.jpg"
"",4052,"survey-text-columnResponse",8,30294,"0.0-8.0","p114598","0,9,5,5,0,1,7,3","R_1nVojIlZuZTBGjM","{""Q0"":""bird""}",0,"bird","lib/images/sparrow_600x600.jpg","sparrow","bird","hRlOEAfNAMINALomvefwwbYM","41","Male","Bachelor's Degree","No","","","","","","","bird","birds","typical","sparrow","sparrow_mz","https://commons.wikimedia.org/wiki/File:Tree_Sparrow_Japan_Flip.jpg","sparrow","_600x600.jpg","sparrow_600x600.jpg","../images/sparrow_600x600.jpg"
"",2396,"survey-text-columnResponse",9,32892,"0.0-9.0","p114598","0,9,5,5,0,1,7,3","R_1nVojIlZuZTBGjM","{""Q0"":""dog""}",0,"dog","lib/images/afghanhound_600x600.jpg","afghanhound","dog","hRlOEAfNAMINALomvefwwbYM","41","Male","Bachelor's Degree","No","","","","","","","dog","dogs","atypical","afghan hound","afghanhound_mz_1","https://commons.wikimedia.org/wiki/File:Arabian_Hound_001_U.jpg","afghanhound","_600x600.jpg","afghanhound_600x600.jpg","../images/afghanhound_600x600.jpg"
"",3793,"survey-text-columnResponse",10,36887,"0.0-10.0","p114598","0,9,5,5,0,1,7,3","R_1nVojIlZuZTBGjM","{""Q0"":""stork""}",0,"stork","lib/images/heron_600x600.jpg","heron","stork","hRlOEAfNAMINALomvefwwbYM","41","Male","Bachelor's Degree","No","","","","","","","bird","birds","atypical","heron","heron_boss","BOSS","heron","_600x600.jpg","heron_600x600.jpg","../images/heron_600x600.jpg"
"[{""page_index"":0,""viewing_time"":9749}]",9751,"instructions",0,9850,"0.0-0.0","p114748","4,9,2,7,7,2,8,5","R_12AyeaxnmyxfWia","",NA,"","","","","KtZmNnBNAMINALFaMmBUTUku","71","Female","Some College","No","","","","","","",NA,NA,NA,NA,NA,NA,NA,NA,NA,NA
"",18556,"survey-text-columnResponse",1,28411,"0.0-1.0","p114748","4,9,2,7,7,2,8,5","R_12AyeaxnmyxfWia","{""Q0"":""GIRAFFE""}",0,"GIRAFFE","lib/images/giraffe.jpg","giraffe.jpg","giraffe","KtZmNnBNAMINALFaMmBUTUku","71","Female","Some College","No","","","","","","",NA,NA,NA,NA,NA,NA,NA,NA,NA,NA
"",12750,"survey-text-columnResponse",2,41367,"0.0-2.0","p114748","4,9,2,7,7,2,8,5","R_12AyeaxnmyxfWia","{""Q0"":""yorkshire terrier ""}",0,"yorkshire terrier ","lib/images/yorkshireterrier_600x600.jpg","yorkshireterrier","yorkshire terrier","KtZmNnBNAMINALFaMmBUTUku","71","Female","Some College","No","","","","","","","dog","dogs","atypical","yorkshire terrier","yorkshireterrier_hw","https://pixabay.com/photos/yorkshire-terrier-terrier-dog-361730/","yorkshireterrier","_600x600.jpg","yorkshireterrier_600x600.jpg","../images/yorkshireterrier_600x600.jpg"
"",10392,"survey-text-columnResponse",3,51963,"0.0-3.0","p114748","4,9,2,7,7,2,8,5","R_12AyeaxnmyxfWia","{""Q0"":""bengal cat""}",0,"bengal cat","lib/images/egyptianmau_600x600.jpg","egyptianmau","bengal cat","KtZmNnBNAMINALFaMmBUTUku","71","Female","Some College","No","","","","","","","cat","cats","typical","mau","egyptianmau_mz_1","https://commons.wikimedia.org/wiki/File:Egyptian_Mau_Bronze.jpg","egyptianmau","_600x600.jpg","egyptianmau_600x600.jpg","../images/egyptianmau_600x600.jpg"
"",9194,"survey-text-columnResponse",4,61362,"0.0-4.0","p114748","4,9,2,7,7,2,8,5","R_12AyeaxnmyxfWia","{""Q0"":""dalmation dog ""}",0,"dalmation dog ","lib/images/dalmatian_600x600.jpg","dalmatian","dalmation dog","KtZmNnBNAMINALFaMmBUTUku","71","Female","Some College","No","","","","","","","dog","dogs","typical","dalmatian","dalmatian_boss","BOSS","dalmatian","_600x600.jpg","dalmatian_600x600.jpg","../images/dalmatian_600x600.jpg"
"",7809,"survey-text-columnResponse",5,69374,"0.0-5.0","p114748","4,9,2,7,7,2,8,5","R_12AyeaxnmyxfWia","{""Q0"":""fish""}",0,"fish","lib/images/sturgeon_600x600.jpg","sturgeon","fish","KtZmNnBNAMINALFaMmBUTUku","71","Female","Some College","No","","","","","","","fish","fish","atypical","sturgeon","sturgeon_boss","BOSS","sturgeon","_600x600.jpg","sturgeon_600x600.jpg","../images/sturgeon_600x600.jpg"
"",6644,"survey-text-columnResponse",6,76222,"0.0-6.0","p114748","4,9,2,7,7,2,8,5","R_12AyeaxnmyxfWia","{""Q0"":""horse""}",0,"horse","lib/images/horse.jpg","horse.jpg","horse","KtZmNnBNAMINALFaMmBUTUku","71","Female","Some College","No","","","","","","",NA,NA,NA,NA,NA,NA,NA,NA,NA,NA
"",9122,"survey-text-columnResponse",7,85550,"0.0-7.0","p114748","4,9,2,7,7,2,8,5","R_12AyeaxnmyxfWia","{""Q0"":""goldfish""}",0,"goldfish","lib/images/goldfish_600x600.jpg","goldfish","goldfish","KtZmNnBNAMINALFaMmBUTUku","71","Female","Some College","No","","","","","","","fish","fish","typical","goldfish","goldfish_hw","https://pixabay.com/photos/veiltail-fish-goldfish-swim-11453/","goldfish","_600x600.jpg","goldfish_600x600.jpg","../images/goldfish_600x600.jpg"
"",8380,"survey-text-columnResponse",8,94133,"0.0-8.0","p114748","4,9,2,7,7,2,8,5","R_12AyeaxnmyxfWia","{""Q0"":""bird""}",0,"bird","lib/images/sparrow_600x600.jpg","sparrow","bird","KtZmNnBNAMINALFaMmBUTUku","71","Female","Some College","No","","","","","","","bird","birds","typical","sparrow","sparrow_mz","https://commons.wikimedia.org/wiki/File:Tree_Sparrow_Japan_Flip.jpg","sparrow","_600x600.jpg","sparrow_600x600.jpg","../images/sparrow_600x600.jpg"
"",7360,"survey-text-columnResponse",9,101697,"0.0-9.0","p114748","4,9,2,7,7,2,8,5","R_12AyeaxnmyxfWia","{""Q0"":""peacock""}",0,"peacock","lib/images/peacock_600x600.jpg","peacock","peacock","KtZmNnBNAMINALFaMmBUTUku","71","Female","Some College","No","","","","","","","bird","birds","atypical","peacock","peacock_boss","BOSS","peacock","_600x600.jpg","peacock_600x600.jpg","../images/peacock_600x600.jpg"
"",12325,"survey-text-columnResponse",10,114225,"0.0-10.0","p114748","4,9,2,7,7,2,8,5","R_12AyeaxnmyxfWia","{""Q0"":""persian cat""}",0,"persian cat","lib/images/exotic_600x600.jpg","exotic","persian cat","KtZmNnBNAMINALFaMmBUTUku","71","Female","Some College","No","","","","","","","cat","cats","atypical","exotic","exotic_mz_1","https://commons.wikimedia.org/wiki/File:Exotic_Shorthair.jpg","exotic","_600x600.jpg","exotic_600x600.jpg","../images/exotic_600x600.jpg"
"[{""page_index"":0,""viewing_time"":1616}]",1616,"instructions",0,1679,"0.0-0.0","p118690","9,4,2,4,0,1,0,1","R_2cbgBjSoCSvzMoQ","",NA,"","","","","oUtLKpuNAMINALcxNbdUimTZ","30","Male","Bachelor's Degree","Yes","English","","","","","english",NA,NA,NA,NA,NA,NA,NA,NA,NA,NA
"",4292,"survey-text-columnResponse",1,5973,"0.0-1.0","p118690","9,4,2,4,0,1,0,1","R_2cbgBjSoCSvzMoQ","{""Q0"":""horse""}",0,"horse","lib/images/horse.jpg","horse.jpg","horse","oUtLKpuNAMINALcxNbdUimTZ","30","Male","Bachelor's Degree","Yes","English","","","","","english",NA,NA,NA,NA,NA,NA,NA,NA,NA,NA
"",2857,"survey-text-columnResponse",2,9032,"0.0-2.0","p118690","9,4,2,4,0,1,0,1","R_2cbgBjSoCSvzMoQ","{""Q0"":""dog""}",0,"dog","lib/images/afghanhound_600x600.jpg","afghanhound","dog","oUtLKpuNAMINALcxNbdUimTZ","30","Male","Bachelor's Degree","Yes","English","","","","","english","dog","dogs","atypical","afghan hound","afghanhound_mz_1","https://commons.wikimedia.org/wiki/File:Arabian_Hound_001_U.jpg","afghanhound","_600x600.jpg","afghanhound_600x600.jpg","../images/afghanhound_600x600.jpg"
"",2845,"survey-text-columnResponse",3,12081,"0.0-3.0","p118690","9,4,2,4,0,1,0,1","R_2cbgBjSoCSvzMoQ","{""Q0"":""bird""}",0,"bird","lib/images/goldfinch_600x600.jpg","goldfinch","bird","oUtLKpuNAMINALcxNbdUimTZ","30","Male","Bachelor's Degree","Yes","English","","","","","english","bird","birds","typical","goldfinch","goldfinch_boss","BOSS","goldfinch","_600x600.jpg","goldfinch_600x600.jpg","../images/goldfinch_600x600.jpg"
"",2362,"survey-text-columnResponse",4,14646,"0.0-4.0","p118690","9,4,2,4,0,1,0,1","R_2cbgBjSoCSvzMoQ","{""Q0"":""cat""}",0,"cat","lib/images/burmese_600x600.jpg","burmese","cat","oUtLKpuNAMINALcxNbdUimTZ","30","Male","Bachelor's Degree","Yes","English","","","","","english","cat","cats","typical","burmese","burmese_hw","https://pixabay.com/photos/animals-cute-cat-pet-breed-burmese-3273782/","burmese","_600x600.jpg","burmese_600x600.jpg","../images/burmese_600x600.jpg"
"",3937,"survey-text-columnResponse",5,18786,"0.0-5.0","p118690","9,4,2,4,0,1,0,1","R_2cbgBjSoCSvzMoQ","{""Q0"":""vulture""}",0,"vulture","lib/images/vulture_600x600.jpg","vulture","vulture","oUtLKpuNAMINALcxNbdUimTZ","30","Male","Bachelor's Degree","Yes","English","","","","","english","bird","birds","atypical","vulture","vulture_boss","BOSS","vulture","_600x600.jpg","vulture_600x600.jpg","../images/vulture_600x600.jpg"
"",8436,"survey-text-columnResponse",6,27426,"0.0-6.0","p118690","9,4,2,4,0,1,0,1","R_2cbgBjSoCSvzMoQ","{""Q0"":""girrafe""}",0,"girrafe","lib/images/giraffe.jpg","giraffe.jpg","girrafe","oUtLKpuNAMINALcxNbdUimTZ","30","Male","Bachelor's Degree","Yes","English","","","","","english",NA,NA,NA,NA,NA,NA,NA,NA,NA,NA
"",3319,"survey-text-columnResponse",7,30947,"0.0-7.0","p118690","9,4,2,4,0,1,0,1","R_2cbgBjSoCSvzMoQ","{""Q0"":""dog""}",0,"dog","lib/images/beagle_600x600.jpg","beagle","dog","oUtLKpuNAMINALcxNbdUimTZ","30","Male","Bachelor's Degree","Yes","English","","","","","english","dog","dogs","typical","beagle","beagle_mz_4","https://commons.wikimedia.org/wiki/File:Beagle_1.jpg","beagle","_600x600.jpg","beagle_600x600.jpg","../images/beagle_600x600.jpg"
"",2429,"survey-text-columnResponse",8,33580,"0.0-8.0","p118690","9,4,2,4,0,1,0,1","R_2cbgBjSoCSvzMoQ","{""Q0"":""cat""}",0,"cat","lib/images/exotic_600x600.jpg","exotic","cat","oUtLKpuNAMINALcxNbdUimTZ","30","Male","Bachelor's Degree","Yes","English","","","","","english","cat","cats","atypical","exotic","exotic_mz_1","https://commons.wikimedia.org/wiki/File:Exotic_Shorthair.jpg","exotic","_600x600.jpg","exotic_600x600.jpg","../images/exotic_600x600.jpg"
"",3691,"survey-text-columnResponse",9,37472,"0.0-9.0","p118690","9,4,2,4,0,1,0,1","R_2cbgBjSoCSvzMoQ","{""Q0"":""fish""}",0,"fish","lib/images/betafish_600x600.jpg","betafish","fish","oUtLKpuNAMINALcxNbdUimTZ","30","Male","Bachelor's Degree","Yes","English","","","","","english","fish","fish","atypical","beta  fish","betafish_mz_1","https://commons.wikimedia.org/wiki/File:Male_Betta_-34245661920.jpg","betafish","_600x600.jpg","betafish_600x600.jpg","../images/betafish_600x600.jpg"
"",4678,"survey-text-columnResponse",10,42355,"0.0-10.0","p118690","9,4,2,4,0,1,0,1","R_2cbgBjSoCSvzMoQ","{""Q0"":""fish""}",0,"fish","lib/images/bass_600x600.jpg","bass","fish","oUtLKpuNAMINALcxNbdUimTZ","30","Male","Bachelor's Degree","Yes","English","","","","","english","fish","fish","typical","bass","rockbass_boss","BOSS","bass","_600x600.jpg","bass_600x600.jpg","../images/bass_600x600.jpg"
"[{""page_index"":0,""viewing_time"":4528}]",4529,"instructions",0,4539,"0.0-0.0","p122444","5,5,6,6,3,3,6,5","R_80oJHEVFPJYEAnL","",NA,"","","","","TSnuCxJNAMINALeQZCchSHdm","31","Female","Some College","No","","","","","","",NA,NA,NA,NA,NA,NA,NA,NA,NA,NA
"",3614,"survey-text-columnResponse",1,8157,"0.0-1.0","p122444","5,5,6,6,3,3,6,5","R_80oJHEVFPJYEAnL","{""Q0"":""giraffe""}",0,"giraffe","lib/images/giraffe.jpg","giraffe.jpg","giraffe","TSnuCxJNAMINALeQZCchSHdm","31","Female","Some College","No","","","","","","",NA,NA,NA,NA,NA,NA,NA,NA,NA,NA
"",2846,"survey-text-columnResponse",2,11205,"0.0-2.0","p122444","5,5,6,6,3,3,6,5","R_80oJHEVFPJYEAnL","{""Q0"":""parrot""}",0,"parrot","lib/images/parrot_600x600.jpg","parrot","parrot","TSnuCxJNAMINALeQZCchSHdm","31","Female","Some College","No","","","","","","","bird","birds","typical","parrot","parrot_boss","BOSS","parrot","_600x600.jpg","parrot_600x600.jpg","../images/parrot_600x600.jpg"
"",4360,"survey-text-columnResponse",3,15767,"0.0-3.0","p122444","5,5,6,6,3,3,6,5","R_80oJHEVFPJYEAnL","{""Q0"":""goldfish""}",0,"goldfish","lib/images/goldfish_600x600.jpg","goldfish","goldfish","TSnuCxJNAMINALeQZCchSHdm","31","Female","Some College","No","","","","","","","fish","fish","typical","goldfish","goldfish_hw","https://pixabay.com/photos/veiltail-fish-goldfish-swim-11453/","goldfish","_600x600.jpg","goldfish_600x600.jpg","../images/goldfish_600x600.jpg"
"",2432,"survey-text-columnResponse",4,18401,"0.0-4.0","p122444","5,5,6,6,3,3,6,5","R_80oJHEVFPJYEAnL","{""Q0"":""dog""}",0,"dog","lib/images/greyhound_600x600.jpg","greyhound","dog","TSnuCxJNAMINALeQZCchSHdm","31","Female","Some College","No","","","","","","","dog","dogs","atypical","greyhound","greyhound_BOSS","BOSS","greyhound","_600x600.jpg","greyhound_600x600.jpg","../images/greyhound_600x600.jpg"
"",2652,"survey-text-columnResponse",5,21254,"0.0-5.0","p122444","5,5,6,6,3,3,6,5","R_80oJHEVFPJYEAnL","{""Q0"":""seahorse""}",0,"seahorse","lib/images/seahorse_600x600.jpg","seahorse","seahorse","TSnuCxJNAMINALeQZCchSHdm","31","Female","Some College","No","","","","","","","fish","fish","atypical","seahorse","seahorse_mz_1","https://unsplash.com/photos/fG1fdervp1E","seahorse","_600x600.jpg","seahorse_600x600.jpg","../images/seahorse_600x600.jpg"
"",1843,"survey-text-columnResponse",6,23301,"0.0-6.0","p122444","5,5,6,6,3,3,6,5","R_80oJHEVFPJYEAnL","{""Q0"":""horse""}",0,"horse","lib/images/horse.jpg","horse.jpg","horse","TSnuCxJNAMINALeQZCchSHdm","31","Female","Some College","No","","","","","","",NA,NA,NA,NA,NA,NA,NA,NA,NA,NA
"",3032,"survey-text-columnResponse",7,26535,"0.0-7.0","p122444","5,5,6,6,3,3,6,5","R_80oJHEVFPJYEAnL","{""Q0"":""pelican""}",0,"pelican","lib/images/pelican_600x600.jpg","pelican","pelican","TSnuCxJNAMINALeQZCchSHdm","31","Female","Some College","No","","","","","","","bird","birds","atypical","pelican","pelican_boss","BOSS","pelican","_600x600.jpg","pelican_600x600.jpg","../images/pelican_600x600.jpg"
"",1576,"survey-text-columnResponse",8,28315,"0.0-8.0","p122444","5,5,6,6,3,3,6,5","R_80oJHEVFPJYEAnL","{""Q0"":""dog""}",0,"dog","lib/images/germanshepherd_600x600.jpg","germanshepherd","dog","TSnuCxJNAMINALeQZCchSHdm","31","Female","Some College","No","","","","","","","dog","dogs","typical","german shepherd","germanshepherd_mz_1","https://commons.wikimedia.org/wiki/File:02.Owczarek_niemiecki_u%C5%BCytkowy_kr%C3%B3tkow%C5%82osy_suka.jpg","germanshepherd","_600x600.jpg","germanshepherd_600x600.jpg","../images/germanshepherd_600x600.jpg"
"",2202,"survey-text-columnResponse",9,30721,"0.0-9.0","p122444","5,5,6,6,3,3,6,5","R_80oJHEVFPJYEAnL","{""Q0"":""cat""}",0,"cat","lib/images/siberian_600x600.jpg","siberian","cat","TSnuCxJNAMINALeQZCchSHdm","31","Female","Some College","No","","","","","","","cat","cats","atypical","siberian","siberian_mz_3","https://commons.wikimedia.org/wiki/File:Siberian_Forest_Cat.jpg","siberian","_600x600.jpg","siberian_600x600.jpg","../images/siberian_600x600.jpg"
"",1759,"survey-text-columnResponse",10,32682,"0.0-10.0","p122444","5,5,6,6,3,3,6,5","R_80oJHEVFPJYEAnL","{""Q0"":""cat""}",0,"cat","lib/images/arabianmau_600x600.jpg","arabianmau","cat","TSnuCxJNAMINALeQZCchSHdm","31","Female","Some College","No","","","","","","","cat","cats","typical","mau","arabianmau_mz_1","https://commons.wikimedia.org/wiki/File:Arabian_Mau1.jpg","arabianmau","_600x600.jpg","arabianmau_600x600.jpg","../images/arabianmau_600x600.jpg"
"[{""page_index"":0,""viewing_time"":4246}]",4246,"instructions",0,4264,"0.0-0.0","p123050","1,1,7,5,7,0,2,2","R_1jTeG6hQOX4uwns","",NA,"","","","","lThmGcSNAMINALWeBUjDsQxJ","28","Male","Bachelor's Degree","Yes","English","Russian","","","","english",NA,NA,NA,NA,NA,NA,NA,NA,NA,NA
"",9593,"survey-text-columnResponse",1,13860,"0.0-1.0","p123050","1,1,7,5,7,0,2,2","R_1jTeG6hQOX4uwns","{""Q0"":""graiffe""}",0,"graiffe","lib/images/giraffe.jpg","giraffe.jpg","graiffe","lThmGcSNAMINALWeBUjDsQxJ","28","Male","Bachelor's Degree","Yes","English","Russian","","","","english",NA,NA,NA,NA,NA,NA,NA,NA,NA,NA
"",5678,"survey-text-columnResponse",2,19740,"0.0-2.0","p123050","1,1,7,5,7,0,2,2","R_1jTeG6hQOX4uwns","{""Q0"":""cat""}",0,"cat","lib/images/sphynx_600x600.jpg","sphynx","cat","lThmGcSNAMINALWeBUjDsQxJ","28","Male","Bachelor's Degree","Yes","English","Russian","","","","english","cat","cats","atypical","sphynx","sphynx_mz_4","https://commons.wikimedia.org/wiki/File:Sphynx_-_cat._img_046.jpg","sphynx","_600x600.jpg","sphynx_600x600.jpg","../images/sphynx_600x600.jpg"
"",17286,"survey-text-columnResponse",3,37228,"0.0-3.0","p123050","1,1,7,5,7,0,2,2","R_1jTeG6hQOX4uwns","{""Q0"":""octopus""}",0,"octopus","lib/images/cuttlefish_600x600.jpg","cuttlefish","octopus","lThmGcSNAMINALWeBUjDsQxJ","28","Male","Bachelor's Degree","Yes","English","Russian","","","","english","fish","fish","atypical","cuttlefish","cuttlefish_boss","BOSS","cuttlefish","_600x600.jpg","cuttlefish_600x600.jpg","../images/cuttlefish_600x600.jpg"
"",5206,"survey-text-columnResponse",4,42635,"0.0-4.0","p123050","1,1,7,5,7,0,2,2","R_1jTeG6hQOX4uwns","{""Q0"":""bird""}",0,"bird","lib/images/kingfisher_600x600.jpg","kingfisher","bird","lThmGcSNAMINALWeBUjDsQxJ","28","Male","Bachelor's Degree","Yes","English","Russian","","","","english","bird","birds","atypical","king fisher","kingfisher_boss","BOSS","kingfisher","_600x600.jpg","kingfisher_600x600.jpg","../images/kingfisher_600x600.jpg"
"",8983,"survey-text-columnResponse",5,51820,"0.0-5.0","p123050","1,1,7,5,7,0,2,2","R_1jTeG6hQOX4uwns","{""Q0"":""red bird""}",0,"red bird","lib/images/cardinal_600x600.jpg","cardinal","red bird","lThmGcSNAMINALWeBUjDsQxJ","28","Male","Bachelor's Degree","Yes","English","Russian","","","","english","bird","birds","typical","cardinal","cardinal_mz_2","https://unsplash.com/photos/BxmvI3hutWs","cardinal","_600x600.jpg","cardinal_600x600.jpg","../images/cardinal_600x600.jpg"
"",7413,"survey-text-columnResponse",6,59435,"0.0-6.0","p123050","1,1,7,5,7,0,2,2","R_1jTeG6hQOX4uwns","{""Q0"":""horse""}",0,"horse","lib/images/horse.jpg","horse.jpg","horse","lThmGcSNAMINALWeBUjDsQxJ","28","Male","Bachelor's Degree","Yes","English","Russian","","","","english",NA,NA,NA,NA,NA,NA,NA,NA,NA,NA
"",3599,"survey-text-columnResponse",7,63236,"0.0-7.0","p123050","1,1,7,5,7,0,2,2","R_1jTeG6hQOX4uwns","{""Q0"":""dog""}",0,"dog","lib/images/foxhound_600x600.jpg","foxhound","dog","lThmGcSNAMINALWeBUjDsQxJ","28","Male","Bachelor's Degree","Yes","English","Russian","","","","english","dog","dogs","typical","american foxhound","foxhound_mz","https://commons.wikimedia.org/wiki/File:BIR_Grupp_6-_AMERICAN_FOXHOUND,_J%C3%A4%C3%A4r%C3%A4p%C3%A4%C3%A4_Flikka_(23607404123).jpg","foxhound","_600x600.jpg","foxhound_600x600.jpg","../images/foxhound_600x600.jpg"
"",4574,"survey-text-columnResponse",8,68011,"0.0-8.0","p123050","1,1,7,5,7,0,2,2","R_1jTeG6hQOX4uwns","{""Q0"":""fish""}",0,"fish","lib/images/bluetang_600x600.jpg","bluetang","fish","lThmGcSNAMINALWeBUjDsQxJ","28","Male","Bachelor's Degree","Yes","English","Russian","","","","english","fish","fish","typical","blue tang","bluetang_mz_2","https://unsplash.com/photos/9FvTOCfvt_w","bluetang","_600x600.jpg","bluetang_600x600.jpg","../images/bluetang_600x600.jpg"
"",6422,"survey-text-columnResponse",9,74635,"0.0-9.0","p123050","1,1,7,5,7,0,2,2","R_1jTeG6hQOX4uwns","{""Q0"":""black cat""}",0,"black cat","lib/images/chartreux_600x600.jpg","chartreux","black cat","lThmGcSNAMINALWeBUjDsQxJ","28","Male","Bachelor's Degree","Yes","English","Russian","","","","english","cat","cats","typical","chartreux","chartreux_mz_2","https://www.pexels.com/photo/animals-cat-chartreux-mieze-357182/","chartreux","_600x600.jpg","chartreux_600x600.jpg","../images/chartreux_600x600.jpg"
"",4862,"survey-text-columnResponse",10,79699,"0.0-10.0","p123050","1,1,7,5,7,0,2,2","R_1jTeG6hQOX4uwns","{""Q0"":""dog""}",0,"dog","lib/images/yorkshireterrier_600x600.jpg","yorkshireterrier","dog","lThmGcSNAMINALWeBUjDsQxJ","28","Male","Bachelor's Degree","Yes","English","Russian","","","","english","dog","dogs","atypical","yorkshire terrier","yorkshireterrier_hw","https://pixabay.com/photos/yorkshire-terrier-terrier-dog-361730/","yorkshireterrier","_600x600.jpg","yorkshireterrier_600x600.jpg","../images/yorkshireterrier_600x600.jpg"
"[{""page_index"":0,""viewing_time"":1357}]",1357,"instructions",0,1361,"0.0-0.0","p126636","9,2,5,5,3,3,1,2","R_3LhUSQwYyxrOvJ7","",NA,"","","","","HgUnYEENAMINALhKJutATWkK","22","Male","Bachelor's Degree","Yes","Korean","Chinese","","","","",NA,NA,NA,NA,NA,NA,NA,NA,NA,NA
"",4120,"survey-text-columnResponse",1,5483,"0.0-1.0","p126636","9,2,5,5,3,3,1,2","R_3LhUSQwYyxrOvJ7","{""Q0"":""horse""}",0,"horse","lib/images/horse.jpg","horse.jpg","horse","HgUnYEENAMINALhKJutATWkK","22","Male","Bachelor's Degree","Yes","Korean","Chinese","","","","",NA,NA,NA,NA,NA,NA,NA,NA,NA,NA
"",1710,"survey-text-columnResponse",2,7395,"0.0-2.0","p126636","9,2,5,5,3,3,1,2","R_3LhUSQwYyxrOvJ7","{""Q0"":""bird""}",0,"bird","lib/images/cedarwaxwing_600x600.jpg","cedarwaxwing","bird","HgUnYEENAMINALhKJutATWkK","22","Male","Bachelor's Degree","Yes","Korean","Chinese","","","","","bird","birds","typical","cedar wax wing","cedarwaxwing_boss","BOSS","cedarwaxwing","_600x600.jpg","cedarwaxwing_600x600.jpg","../images/cedarwaxwing_600x600.jpg"
"",1451,"survey-text-columnResponse",3,9047,"0.0-3.0","p126636","9,2,5,5,3,3,1,2","R_3LhUSQwYyxrOvJ7","{""Q0"":""bird""}",0,"bird","lib/images/vulture_600x600.jpg","vulture","bird","HgUnYEENAMINALhKJutATWkK","22","Male","Bachelor's Degree","Yes","Korean","Chinese","","","","","bird","birds","atypical","vulture","vulture_boss","BOSS","vulture","_600x600.jpg","vulture_600x600.jpg","../images/vulture_600x600.jpg"
"",1434,"survey-text-columnResponse",4,10683,"0.0-4.0","p126636","9,2,5,5,3,3,1,2","R_3LhUSQwYyxrOvJ7","{""Q0"":""dog""}",0,"dog","lib/images/greyhound_600x600.jpg","greyhound","dog","HgUnYEENAMINALhKJutATWkK","22","Male","Bachelor's Degree","Yes","Korean","Chinese","","","","","dog","dogs","atypical","greyhound","greyhound_BOSS","BOSS","greyhound","_600x600.jpg","greyhound_600x600.jpg","../images/greyhound_600x600.jpg"
"",2372,"survey-text-columnResponse",5,13256,"0.0-5.0","p126636","9,2,5,5,3,3,1,2","R_3LhUSQwYyxrOvJ7","{""Q0"":""catfish""}",0,"catfish","lib/images/catfish_600x600.jpg","catfish","catfish","HgUnYEENAMINALhKJutATWkK","22","Male","Bachelor's Degree","Yes","Korean","Chinese","","","","","fish","fish","atypical","catfish","catfish_hw","https://commons.wikimedia.org/wiki/File:Blue_catfish_tenn_aquarium.JPG","catfish","_600x600.jpg","catfish_600x600.jpg","../images/catfish_600x600.jpg"
"",2141,"survey-text-columnResponse",6,15599,"0.0-6.0","p126636","9,2,5,5,3,3,1,2","R_3LhUSQwYyxrOvJ7","{""Q0"":""giraffe""}",0,"giraffe","lib/images/giraffe.jpg","giraffe.jpg","giraffe","HgUnYEENAMINALhKJutATWkK","22","Male","Bachelor's Degree","Yes","Korean","Chinese","","","","",NA,NA,NA,NA,NA,NA,NA,NA,NA,NA
"",1210,"survey-text-columnResponse",7,17010,"0.0-7.0","p126636","9,2,5,5,3,3,1,2","R_3LhUSQwYyxrOvJ7","{""Q0"":""cat""}",0,"cat","lib/images/chartreux_600x600.jpg","chartreux","cat","HgUnYEENAMINALhKJutATWkK","22","Male","Bachelor's Degree","Yes","Korean","Chinese","","","","","cat","cats","typical","chartreux","chartreux_mz_2","https://www.pexels.com/photo/animals-cat-chartreux-mieze-357182/","chartreux","_600x600.jpg","chartreux_600x600.jpg","../images/chartreux_600x600.jpg"
"",1752,"survey-text-columnResponse",8,18964,"0.0-8.0","p126636","9,2,5,5,3,3,1,2","R_3LhUSQwYyxrOvJ7","{""Q0"":""fish""}",0,"fish","lib/images/bluetang_600x600.jpg","bluetang","fish","HgUnYEENAMINALhKJutATWkK","22","Male","Bachelor's Degree","Yes","Korean","Chinese","","","","","fish","fish","typical","blue tang","bluetang_mz_2","https://unsplash.com/photos/9FvTOCfvt_w","bluetang","_600x600.jpg","bluetang_600x600.jpg","../images/bluetang_600x600.jpg"
"",1539,"survey-text-columnResponse",9,20704,"0.0-9.0","p126636","9,2,5,5,3,3,1,2","R_3LhUSQwYyxrOvJ7","{""Q0"":""cat""}",0,"cat","lib/images/siamese_600x600.jpg","siamese","cat","HgUnYEENAMINALhKJutATWkK","22","Male","Bachelor's Degree","Yes","Korean","Chinese","","","","","cat","cats","atypical","siamese","siamesecat_hw_2","https://pixabay.com/photos/cat-siamese-cat-fur-kitten-2068462/","siamese","_600x600.jpg","siamese_600x600.jpg","../images/siamese_600x600.jpg"
"",2720,"survey-text-columnResponse",10,23626,"0.0-10.0","p126636","9,2,5,5,3,3,1,2","R_3LhUSQwYyxrOvJ7","{""Q0"":""dog""}",0,"dog","lib/images/germanshepherd_600x600.jpg","germanshepherd","dog","HgUnYEENAMINALhKJutATWkK","22","Male","Bachelor's Degree","Yes","Korean","Chinese","","","","","dog","dogs","typical","german shepherd","germanshepherd_mz_1","https://commons.wikimedia.org/wiki/File:02.Owczarek_niemiecki_u%C5%BCytkowy_kr%C3%B3tkow%C5%82osy_suka.jpg","germanshepherd","_600x600.jpg","germanshepherd_600x600.jpg","../images/germanshepherd_600x600.jpg"
"[{""page_index"":0,""viewing_time"":1490}]",1491,"instructions",0,1515,"0.0-0.0","p128023","3,3,5,5,6,0,5,7","R_AsTURpWdaon5DDr","",NA,"","","","","DKZLmFnNAMINALGSFMGCIXDV","38","Male","Bachelor's Degree","No","","","","","","",NA,NA,NA,NA,NA,NA,NA,NA,NA,NA
"",11460,"survey-text-columnResponse",1,12978,"0.0-1.0","p128023","3,3,5,5,6,0,5,7","R_AsTURpWdaon5DDr","{""Q0"":""horse""}",0,"horse","lib/images/horse.jpg","horse.jpg","horse","DKZLmFnNAMINALGSFMGCIXDV","38","Male","Bachelor's Degree","No","","","","","","",NA,NA,NA,NA,NA,NA,NA,NA,NA,NA
"",6383,"survey-text-columnResponse",2,19564,"0.0-2.0","p128023","3,3,5,5,6,0,5,7","R_AsTURpWdaon5DDr","{""Q0"":""fish""}",0,"fish","lib/images/sergeantmajor_600x600.jpg","sergeantmajor","fish","DKZLmFnNAMINALGSFMGCIXDV","38","Male","Bachelor's Degree","No","","","","","","","fish","fish","typical","sergeant major","sergeantmajor_hw_1","https://unsplash.com/photos/mjPMBpsxICY","sergeantmajor","_600x600.jpg","sergeantmajor_600x600.jpg","../images/sergeantmajor_600x600.jpg"
"",4179,"survey-text-columnResponse",3,23946,"0.0-3.0","p128023","3,3,5,5,6,0,5,7","R_AsTURpWdaon5DDr","{""Q0"":""cat""}",0,"cat","lib/images/chartreux_600x600.jpg","chartreux","cat","DKZLmFnNAMINALGSFMGCIXDV","38","Male","Bachelor's Degree","No","","","","","","","cat","cats","typical","chartreux","chartreux_mz_2","https://www.pexels.com/photo/animals-cat-chartreux-mieze-357182/","chartreux","_600x600.jpg","chartreux_600x600.jpg","../images/chartreux_600x600.jpg"
"",6029,"survey-text-columnResponse",4,30178,"0.0-4.0","p128023","3,3,5,5,6,0,5,7","R_AsTURpWdaon5DDr","{""Q0"":""dog""}",0,"dog","lib/images/sheepdog_600x600.jpg","sheepdog","dog","DKZLmFnNAMINALGSFMGCIXDV","38","Male","Bachelor's Degree","No","","","","","","","dog","dogs","atypical","sheepdog","sheepdog_er","EmbersonRubenstein","sheepdog","_600x600.jpg","sheepdog_600x600.jpg","../images/sheepdog_600x600.jpg"
"",5125,"survey-text-columnResponse",5,35507,"0.0-5.0","p128023","3,3,5,5,6,0,5,7","R_AsTURpWdaon5DDr","{""Q0"":""bird""}",0,"bird","lib/images/falcon_600x600.jpg","falcon","bird","DKZLmFnNAMINALGSFMGCIXDV","38","Male","Bachelor's Degree","No","","","","","","","bird","birds","typical","falcon","falcon_mz_1","https://upload.wikimedia.org/wikipedia/commons/9/9a/Falco_peregrinus_good_-_Christopher_Watson.jpg","falcon","_600x600.jpg","falcon_600x600.jpg","../images/falcon_600x600.jpg"
"",5309,"survey-text-columnResponse",6,41018,"0.0-6.0","p128023","3,3,5,5,6,0,5,7","R_AsTURpWdaon5DDr","{""Q0"":""giraffe""}",0,"giraffe","lib/images/giraffe.jpg","giraffe.jpg","giraffe","DKZLmFnNAMINALGSFMGCIXDV","38","Male","Bachelor's Degree","No","","","","","","",NA,NA,NA,NA,NA,NA,NA,NA,NA,NA
"",7015,"survey-text-columnResponse",7,48236,"0.0-7.0","p128023","3,3,5,5,6,0,5,7","R_AsTURpWdaon5DDr","{""Q0"":""dog""}",0,"dog","lib/images/foxhound_600x600.jpg","foxhound","dog","DKZLmFnNAMINALGSFMGCIXDV","38","Male","Bachelor's Degree","No","","","","","","","dog","dogs","typical","american foxhound","foxhound_mz","https://commons.wikimedia.org/wiki/File:BIR_Grupp_6-_AMERICAN_FOXHOUND,_J%C3%A4%C3%A4r%C3%A4p%C3%A4%C3%A4_Flikka_(23607404123).jpg","foxhound","_600x600.jpg","foxhound_600x600.jpg","../images/foxhound_600x600.jpg"
"",5780,"survey-text-columnResponse",8,54218,"0.0-8.0","p128023","3,3,5,5,6,0,5,7","R_AsTURpWdaon5DDr","{""Q0"":""cat""}",0,"cat","lib/images/siamese_600x600.jpg","siamese","cat","DKZLmFnNAMINALGSFMGCIXDV","38","Male","Bachelor's Degree","No","","","","","","","cat","cats","atypical","siamese","siamesecat_hw_2","https://pixabay.com/photos/cat-siamese-cat-fur-kitten-2068462/","siamese","_600x600.jpg","siamese_600x600.jpg","../images/siamese_600x600.jpg"
"",4483,"survey-text-columnResponse",9,58904,"0.0-9.0","p128023","3,3,5,5,6,0,5,7","R_AsTURpWdaon5DDr","{""Q0"":""owl""}",0,"owl","lib/images/owl_600x600.jpg","owl","owl","DKZLmFnNAMINALGSFMGCIXDV","38","Male","Bachelor's Degree","No","","","","","","","bird","birds","atypical","owl","owl_boss","BOSS","owl","_600x600.jpg","owl_600x600.jpg","../images/owl_600x600.jpg"
"",5261,"survey-text-columnResponse",10,64368,"0.0-10.0","p128023","3,3,5,5,6,0,5,7","R_AsTURpWdaon5DDr","{""Q0"":""fish""}",0,"fish","lib/images/salmon_600x600.jpg","salmon","fish","DKZLmFnNAMINALGSFMGCIXDV","38","Male","Bachelor's Degree","No","","","","","","","fish","fish","atypical","salmon","salmon_boss","BOSS","salmon","_600x600.jpg","salmon_600x600.jpg","../images/salmon_600x600.jpg"
"[{""page_index"":0,""viewing_time"":4700}]",4702,"instructions",0,4784,"0.0-0.0","p129242","7,0,5,4,5,6,1,6","R_32K5dRPhQVypbX5","",NA,"","","","","qKnsPoWNAMINALZndKMRMNCF","33","Male","Bachelor's Degree","No","","","","","","",NA,NA,NA,NA,NA,NA,NA,NA,NA,NA
"",7361,"survey-text-columnResponse",1,12152,"0.0-1.0","p129242","7,0,5,4,5,6,1,6","R_32K5dRPhQVypbX5","{""Q0"":""giraffe""}",0,"giraffe","lib/images/giraffe.jpg","giraffe.jpg","giraffe","qKnsPoWNAMINALZndKMRMNCF","33","Male","Bachelor's Degree","No","","","","","","",NA,NA,NA,NA,NA,NA,NA,NA,NA,NA
"",5148,"survey-text-columnResponse",2,17506,"0.0-2.0","p129242","7,0,5,4,5,6,1,6","R_32K5dRPhQVypbX5","{""Q0"":""koi fish""}",0,"koi fish","lib/images/koi_600x600.jpg","koi","koi fish","qKnsPoWNAMINALZndKMRMNCF","33","Male","Bachelor's Degree","No","","","","","","","fish","fish","typical","koi","koi_mz","https://www.flickr.com/photos/oregonstateuniversity/13311666853","koi","_600x600.jpg","koi_600x600.jpg","../images/koi_600x600.jpg"
"",3349,"survey-text-columnResponse",3,21060,"0.0-3.0","p129242","7,0,5,4,5,6,1,6","R_32K5dRPhQVypbX5","{""Q0"":""cat""}",0,"cat","lib/images/burmese_600x600.jpg","burmese","cat","qKnsPoWNAMINALZndKMRMNCF","33","Male","Bachelor's Degree","No","","","","","","","cat","cats","typical","burmese","burmese_hw","https://pixabay.com/photos/animals-cute-cat-pet-breed-burmese-3273782/","burmese","_600x600.jpg","burmese_600x600.jpg","../images/burmese_600x600.jpg"
"",4446,"survey-text-columnResponse",4,25711,"0.0-4.0","p129242","7,0,5,4,5,6,1,6","R_32K5dRPhQVypbX5","{""Q0"":""bluejay""}",0,"bluejay","lib/images/bluejay_600x600.jpg","bluejay","bluejay","qKnsPoWNAMINALZndKMRMNCF","33","Male","Bachelor's Degree","No","","","","","","","bird","birds","typical","bluejay","bluejay_boss","BOSS","bluejay","_600x600.jpg","bluejay_600x600.jpg","../images/bluejay_600x600.jpg"
"",3382,"survey-text-columnResponse",5,29300,"0.0-5.0","p129242","7,0,5,4,5,6,1,6","R_32K5dRPhQVypbX5","{""Q0"":""dog""}",0,"dog","lib/images/saintbernard_600x600.jpg","saintbernard","dog","qKnsPoWNAMINALZndKMRMNCF","33","Male","Bachelor's Degree","No","","","","","","","dog","dogs","atypical","saint bernard","saintbernard_boss","BOSS","saintbernard","_600x600.jpg","saintbernard_600x600.jpg","../images/saintbernard_600x600.jpg"
"",4135,"survey-text-columnResponse",6,33642,"0.0-6.0","p129242","7,0,5,4,5,6,1,6","R_32K5dRPhQVypbX5","{""Q0"":""horse""}",0,"horse","lib/images/horse.jpg","horse.jpg","horse","qKnsPoWNAMINALZndKMRMNCF","33","Male","Bachelor's Degree","No","","","","","","",NA,NA,NA,NA,NA,NA,NA,NA,NA,NA
"",3487,"survey-text-columnResponse",7,37337,"0.0-7.0","p129242","7,0,5,4,5,6,1,6","R_32K5dRPhQVypbX5","{""Q0"":""dog""}",0,"dog","lib/images/rottweiler_600x600.jpg","rottweiler","dog","qKnsPoWNAMINALZndKMRMNCF","33","Male","Bachelor's Degree","No","","","","","","","dog","dogs","typical","rottweiler","rottweiler_mz_2","https://commons.wikimedia.org/wiki/File:02_I_Exposici%C3%B3n_Monogr%C3%A1fica_Club_Rottweiler_de_Espa%C3%B1a_-_Santa_Brigida_-_Gran_Canaria.jpg","rottweiler","_600x600.jpg","rottweiler_600x600.jpg","../images/rottweiler_600x600.jpg"
"",4152,"survey-text-columnResponse",8,41694,"0.0-8.0","p129242","7,0,5,4,5,6,1,6","R_32K5dRPhQVypbX5","{""Q0"":""catfish""}",0,"catfish","lib/images/catfish_600x600.jpg","catfish","catfish","qKnsPoWNAMINALZndKMRMNCF","33","Male","Bachelor's Degree","No","","","","","","","fish","fish","atypical","catfish","catfish_hw","https://commons.wikimedia.org/wiki/File:Blue_catfish_tenn_aquarium.JPG","catfish","_600x600.jpg","catfish_600x600.jpg","../images/catfish_600x600.jpg"
"",3515,"survey-text-columnResponse",9,45416,"0.0-9.0","p129242","7,0,5,4,5,6,1,6","R_32K5dRPhQVypbX5","{""Q0"":""cat""}",0,"cat","lib/images/siamese_600x600.jpg","siamese","cat","qKnsPoWNAMINALZndKMRMNCF","33","Male","Bachelor's Degree","No","","","","","","","cat","cats","atypical","siamese","siamesecat_hw_2","https://pixabay.com/photos/cat-siamese-cat-fur-kitten-2068462/","siamese","_600x600.jpg","siamese_600x600.jpg","../images/siamese_600x600.jpg"
"",3839,"survey-text-columnResponse",10,49459,"0.0-10.0","p129242","7,0,5,4,5,6,1,6","R_32K5dRPhQVypbX5","{""Q0"":""toucan""}",0,"toucan","lib/images/toucan_600x600.jpg","toucan","toucan","qKnsPoWNAMINALZndKMRMNCF","33","Male","Bachelor's Degree","No","","","","","","","bird","birds","atypical","toucan","toucan_boss","BOSS","toucan","_600x600.jpg","toucan_600x600.jpg","../images/toucan_600x600.jpg"
"[{""page_index"":0,""viewing_time"":8148}]",8150,"instructions",0,8197,"0.0-0.0","p130525","3,8,6,7,5,6,3,7","R_6YDm5zSkCdY15Ad","",NA,"","","","","cbylCrmNAMINALAHHXKaxYjm","58","Female","Associate's Degree/technical school","No","","","","","","",NA,NA,NA,NA,NA,NA,NA,NA,NA,NA
"",6523,"survey-text-columnResponse",1,14724,"0.0-1.0","p130525","3,8,6,7,5,6,3,7","R_6YDm5zSkCdY15Ad","{""Q0"":""horse""}",0,"horse","lib/images/horse.jpg","horse.jpg","horse","cbylCrmNAMINALAHHXKaxYjm","58","Female","Associate's Degree/technical school","No","","","","","","",NA,NA,NA,NA,NA,NA,NA,NA,NA,NA
"",6516,"survey-text-columnResponse",2,21449,"0.0-2.0","p130525","3,8,6,7,5,6,3,7","R_6YDm5zSkCdY15Ad","{""Q0"":""seagull""}",0,"seagull","lib/images/seagull_600x600.jpg","seagull","seagull","cbylCrmNAMINALAHHXKaxYjm","58","Female","Associate's Degree/technical school","No","","","","","","","bird","birds","typical","seagull","seagull_mz","https://unsplash.com/photos/qrP9Q4ttNLs","seagull","_600x600.jpg","seagull_600x600.jpg","../images/seagull_600x600.jpg"
"",4661,"survey-text-columnResponse",3,26312,"0.0-3.0","p130525","3,8,6,7,5,6,3,7","R_6YDm5zSkCdY15Ad","{""Q0"":""owl""}",0,"owl","lib/images/owl_600x600.jpg","owl","owl","cbylCrmNAMINALAHHXKaxYjm","58","Female","Associate's Degree/technical school","No","","","","","","","bird","birds","atypical","owl","owl_boss","BOSS","owl","_600x600.jpg","owl_600x600.jpg","../images/owl_600x600.jpg"
"",6803,"survey-text-columnResponse",4,33334,"0.0-4.0","p130525","3,8,6,7,5,6,3,7","R_6YDm5zSkCdY15Ad","{""Q0"":""cat""}",0,"cat","lib/images/egyptianmau_600x600.jpg","egyptianmau","cat","cbylCrmNAMINALAHHXKaxYjm","58","Female","Associate's Degree/technical school","No","","","","","","","cat","cats","typical","mau","egyptianmau_mz_1","https://commons.wikimedia.org/wiki/File:Egyptian_Mau_Bronze.jpg","egyptianmau","_600x600.jpg","egyptianmau_600x600.jpg","../images/egyptianmau_600x600.jpg"
"",9983,"survey-text-columnResponse",5,43523,"0.0-5.0","p130525","3,8,6,7,5,6,3,7","R_6YDm5zSkCdY15Ad","{""Q0"":""fish""}",0,"fish","lib/images/lionfish_600x600.jpg","lionfish","fish","cbylCrmNAMINALAHHXKaxYjm","58","Female","Associate's Degree/technical school","No","","","","","","","fish","fish","atypical","lion fish","lionfish_mz","https://unsplash.com/photos/gULJzSnDuZU","lionfish","_600x600.jpg","lionfish_600x600.jpg","../images/lionfish_600x600.jpg"
"",6276,"survey-text-columnResponse",6,50004,"0.0-6.0","p130525","3,8,6,7,5,6,3,7","R_6YDm5zSkCdY15Ad","{""Q0"":""giraffe""}",0,"giraffe","lib/images/giraffe.jpg","giraffe.jpg","giraffe","cbylCrmNAMINALAHHXKaxYjm","58","Female","Associate's Degree/technical school","No","","","","","","",NA,NA,NA,NA,NA,NA,NA,NA,NA,NA
"",4949,"survey-text-columnResponse",7,55164,"0.0-7.0","p130525","3,8,6,7,5,6,3,7","R_6YDm5zSkCdY15Ad","{""Q0"":""dog""}",0,"dog","lib/images/saintbernard_600x600.jpg","saintbernard","dog","cbylCrmNAMINALAHHXKaxYjm","58","Female","Associate's Degree/technical school","No","","","","","","","dog","dogs","atypical","saint bernard","saintbernard_boss","BOSS","saintbernard","_600x600.jpg","saintbernard_600x600.jpg","../images/saintbernard_600x600.jpg"
"",11302,"survey-text-columnResponse",8,66674,"0.0-8.0","p130525","3,8,6,7,5,6,3,7","R_6YDm5zSkCdY15Ad","{""Q0"":""longhair cat""}",0,"longhair cat","lib/images/siberian_600x600.jpg","siberian","longhair cat","cbylCrmNAMINALAHHXKaxYjm","58","Female","Associate's Degree/technical school","No","","","","","","","cat","cats","atypical","siberian","siberian_mz_3","https://commons.wikimedia.org/wiki/File:Siberian_Forest_Cat.jpg","siberian","_600x600.jpg","siberian_600x600.jpg","../images/siberian_600x600.jpg"
"",9334,"survey-text-columnResponse",9,76222,"0.0-9.0","p130525","3,8,6,7,5,6,3,7","R_6YDm5zSkCdY15Ad","{""Q0"":""dog""}",0,"dog","lib/images/rottweiler_600x600.jpg","rottweiler","dog","cbylCrmNAMINALAHHXKaxYjm","58","Female","Associate's Degree/technical school","No","","","","","","","dog","dogs","typical","rottweiler","rottweiler_mz_2","https://commons.wikimedia.org/wiki/File:02_I_Exposici%C3%B3n_Monogr%C3%A1fica_Club_Rottweiler_de_Espa%C3%B1a_-_Santa_Brigida_-_Gran_Canaria.jpg","rottweiler","_600x600.jpg","rottweiler_600x600.jpg","../images/rottweiler_600x600.jpg"
"",4566,"survey-text-columnResponse",10,80993,"0.0-10.0","p130525","3,8,6,7,5,6,3,7","R_6YDm5zSkCdY15Ad","{""Q0"":""fish""}",0,"fish","lib/images/sergeantmajor_600x600.jpg","sergeantmajor","fish","cbylCrmNAMINALAHHXKaxYjm","58","Female","Associate's Degree/technical school","No","","","","","","","fish","fish","typical","sergeant major","sergeantmajor_hw_1","https://unsplash.com/photos/mjPMBpsxICY","sergeantmajor","_600x600.jpg","sergeantmajor_600x600.jpg","../images/sergeantmajor_600x600.jpg"
"[{""page_index"":0,""viewing_time"":1485}]",1485,"instructions",0,1528,"0.0-0.0","p132378","4,2,0,4,1,3,0,7","R_2aWhuZjdjE1luFt","",NA,"","","","","xJliRdKNAMINALCtmiWadMoi","29","Male","High School / GED","Yes","English","","","","","english",NA,NA,NA,NA,NA,NA,NA,NA,NA,NA
"",6204,"survey-text-columnResponse",1,7735,"0.0-1.0","p132378","4,2,0,4,1,3,0,7","R_2aWhuZjdjE1luFt","{""Q0"":""Giraffe""}",0,"Giraffe","lib/images/giraffe.jpg","giraffe.jpg","giraffe","xJliRdKNAMINALCtmiWadMoi","29","Male","High School / GED","Yes","English","","","","","english",NA,NA,NA,NA,NA,NA,NA,NA,NA,NA
"",39163,"survey-text-columnResponse",2,47111,"0.0-2.0","p132378","4,2,0,4,1,3,0,7","R_2aWhuZjdjE1luFt","{""Q0"":""Aquarium""}",0,"Aquarium","lib/images/betafish_600x600.jpg","betafish","aquarium","xJliRdKNAMINALCtmiWadMoi","29","Male","High School / GED","Yes","English","","","","","english","fish","fish","atypical","beta  fish","betafish_mz_1","https://commons.wikimedia.org/wiki/File:Male_Betta_-34245661920.jpg","betafish","_600x600.jpg","betafish_600x600.jpg","../images/betafish_600x600.jpg"
"",15349,"survey-text-columnResponse",3,62665,"0.0-3.0","p132378","4,2,0,4,1,3,0,7","R_2aWhuZjdjE1luFt","{""Q0"":""Blue leel fish""}",0,"Blue leel fish","lib/images/sergeantmajor_600x600.jpg","sergeantmajor","blue leel fish","xJliRdKNAMINALCtmiWadMoi","29","Male","High School / GED","Yes","English","","","","","english","fish","fish","typical","sergeant major","sergeantmajor_hw_1","https://unsplash.com/photos/mjPMBpsxICY","sergeantmajor","_600x600.jpg","sergeantmajor_600x600.jpg","../images/sergeantmajor_600x600.jpg"
"",4009,"survey-text-columnResponse",4,66889,"0.0-4.0","p132378","4,2,0,4,1,3,0,7","R_2aWhuZjdjE1luFt","{""Q0"":""dog""}",0,"dog","lib/images/germanshepherd_600x600.jpg","germanshepherd","dog","xJliRdKNAMINALCtmiWadMoi","29","Male","High School / GED","Yes","English","","","","","english","dog","dogs","typical","german shepherd","germanshepherd_mz_1","https://commons.wikimedia.org/wiki/File:02.Owczarek_niemiecki_u%C5%BCytkowy_kr%C3%B3tkow%C5%82osy_suka.jpg","germanshepherd","_600x600.jpg","germanshepherd_600x600.jpg","../images/germanshepherd_600x600.jpg"
"",32435,"survey-text-columnResponse",5,99529,"0.0-5.0","p132378","4,2,0,4,1,3,0,7","R_2aWhuZjdjE1luFt","{""Q0"":""Basset Hound""}",0,"Basset Hound","lib/images/bassethound_600x600.jpg","bassethound","basset hound","xJliRdKNAMINALCtmiWadMoi","29","Male","High School / GED","Yes","English","","","","","english","dog","dogs","atypical","basset hound","bassethound_boss","BOSS","bassethound","_600x600.jpg","bassethound_600x600.jpg","../images/bassethound_600x600.jpg"
"",9470,"survey-text-columnResponse",6,109202,"0.0-6.0","p132378","4,2,0,4,1,3,0,7","R_2aWhuZjdjE1luFt","{""Q0"":""Horse""}",0,"Horse","lib/images/horse.jpg","horse.jpg","horse","xJliRdKNAMINALCtmiWadMoi","29","Male","High School / GED","Yes","English","","","","","english",NA,NA,NA,NA,NA,NA,NA,NA,NA,NA
"",26210,"survey-text-columnResponse",7,135616,"0.0-7.0","p132378","4,2,0,4,1,3,0,7","R_2aWhuZjdjE1luFt","{""Q0"":""British Shorthair""}",0,"British Shorthair","lib/images/burmese_600x600.jpg","burmese","british shorthair","xJliRdKNAMINALCtmiWadMoi","29","Male","High School / GED","Yes","English","","","","","english","cat","cats","typical","burmese","burmese_hw","https://pixabay.com/photos/animals-cute-cat-pet-breed-burmese-3273782/","burmese","_600x600.jpg","burmese_600x600.jpg","../images/burmese_600x600.jpg"
"",19085,"survey-text-columnResponse",8,154904,"0.0-8.0","p132378","4,2,0,4,1,3,0,7","R_2aWhuZjdjE1luFt","{""Q0"":""Persian""}",0,"Persian","lib/images/americancurl_600x600.jpg","americancurl","persian","xJliRdKNAMINALCtmiWadMoi","29","Male","High School / GED","Yes","English","","","","","english","cat","cats","atypical","American Curl","americancurl_mz_1","https://commons.wikimedia.org/wiki/File:American_curl_fond_blanc.jpg","americancurl","_600x600.jpg","americancurl_600x600.jpg","../images/americancurl_600x600.jpg"
"",26118,"survey-text-columnResponse",9,181225,"0.0-9.0","p132378","4,2,0,4,1,3,0,7","R_2aWhuZjdjE1luFt","{""Q0"":""Peafowl""}",0,"Peafowl","lib/images/peacock_600x600.jpg","peacock","peafowl","xJliRdKNAMINALCtmiWadMoi","29","Male","High School / GED","Yes","English","","","","","english","bird","birds","atypical","peacock","peacock_boss","BOSS","peacock","_600x600.jpg","peacock_600x600.jpg","../images/peacock_600x600.jpg"
"",14285,"survey-text-columnResponse",10,195713,"0.0-10.0","p132378","4,2,0,4,1,3,0,7","R_2aWhuZjdjE1luFt","{""Q0"":""Cedar waxwing""}",0,"Cedar waxwing","lib/images/cedarwaxwing_600x600.jpg","cedarwaxwing","cedar waxwing","xJliRdKNAMINALCtmiWadMoi","29","Male","High School / GED","Yes","English","","","","","english","bird","birds","typical","cedar wax wing","cedarwaxwing_boss","BOSS","cedarwaxwing","_600x600.jpg","cedarwaxwing_600x600.jpg","../images/cedarwaxwing_600x600.jpg"
"[{""page_index"":0,""viewing_time"":4483}]",4484,"instructions",0,4497,"0.0-0.0","p141601","9,1,2,8,7,2,5,7","R_3MgTKplUlOBQbPK","",NA,"","","","","TokJIZlNAMINALJHrEpIuBUb","27","Male","Some College","No","","","","","","",NA,NA,NA,NA,NA,NA,NA,NA,NA,NA
"",3090,"survey-text-columnResponse",1,7589,"0.0-1.0","p141601","9,1,2,8,7,2,5,7","R_3MgTKplUlOBQbPK","{""Q0"":""horse""}",0,"horse","lib/images/horse.jpg","horse.jpg","horse","TokJIZlNAMINALJHrEpIuBUb","27","Male","Some College","No","","","","","","",NA,NA,NA,NA,NA,NA,NA,NA,NA,NA
"",1669,"survey-text-columnResponse",2,9460,"0.0-2.0","p141601","9,1,2,8,7,2,5,7","R_3MgTKplUlOBQbPK","{""Q0"":""dog""}",0,"dog","lib/images/dalmatian_600x600.jpg","dalmatian","dog","TokJIZlNAMINALJHrEpIuBUb","27","Male","Some College","No","","","","","","","dog","dogs","typical","dalmatian","dalmatian_boss","BOSS","dalmatian","_600x600.jpg","dalmatian_600x600.jpg","../images/dalmatian_600x600.jpg"
"",1997,"survey-text-columnResponse",3,11659,"0.0-3.0","p141601","9,1,2,8,7,2,5,7","R_3MgTKplUlOBQbPK","{""Q0"":""cat""}",0,"cat","lib/images/exotic_600x600.jpg","exotic","cat","TokJIZlNAMINALJHrEpIuBUb","27","Male","Some College","No","","","","","","","cat","cats","atypical","exotic","exotic_mz_1","https://commons.wikimedia.org/wiki/File:Exotic_Shorthair.jpg","exotic","_600x600.jpg","exotic_600x600.jpg","../images/exotic_600x600.jpg"
"",2406,"survey-text-columnResponse",4,14268,"0.0-4.0","p141601","9,1,2,8,7,2,5,7","R_3MgTKplUlOBQbPK","{""Q0"":""fish""}",0,"fish","lib/images/salmon_600x600.jpg","salmon","fish","TokJIZlNAMINALJHrEpIuBUb","27","Male","Some College","No","","","","","","","fish","fish","atypical","salmon","salmon_boss","BOSS","salmon","_600x600.jpg","salmon_600x600.jpg","../images/salmon_600x600.jpg"
"",1789,"survey-text-columnResponse",5,16260,"0.0-5.0","p141601","9,1,2,8,7,2,5,7","R_3MgTKplUlOBQbPK","{""Q0"":""fish""}",0,"fish","lib/images/sergeantmajor_600x600.jpg","sergeantmajor","fish","TokJIZlNAMINALJHrEpIuBUb","27","Male","Some College","No","","","","","","","fish","fish","typical","sergeant major","sergeantmajor_hw_1","https://unsplash.com/photos/mjPMBpsxICY","sergeantmajor","_600x600.jpg","sergeantmajor_600x600.jpg","../images/sergeantmajor_600x600.jpg"
"",2423,"survey-text-columnResponse",6,18884,"0.0-6.0","p141601","9,1,2,8,7,2,5,7","R_3MgTKplUlOBQbPK","{""Q0"":""giraffe ""}",0,"giraffe ","lib/images/giraffe.jpg","giraffe.jpg","giraffe","TokJIZlNAMINALJHrEpIuBUb","27","Male","Some College","No","","","","","","",NA,NA,NA,NA,NA,NA,NA,NA,NA,NA
"",2798,"survey-text-columnResponse",7,21884,"0.0-7.0","p141601","9,1,2,8,7,2,5,7","R_3MgTKplUlOBQbPK","{""Q0"":""cardinal""}",0,"cardinal","lib/images/cardinal_600x600.jpg","cardinal","cardinal","TokJIZlNAMINALJHrEpIuBUb","27","Male","Some College","No","","","","","","","bird","birds","typical","cardinal","cardinal_mz_2","https://unsplash.com/photos/BxmvI3hutWs","cardinal","_600x600.jpg","cardinal_600x600.jpg","../images/cardinal_600x600.jpg"
"",2486,"survey-text-columnResponse",8,24571,"0.0-8.0","p141601","9,1,2,8,7,2,5,7","R_3MgTKplUlOBQbPK","{""Q0"":""cat""}",0,"cat","lib/images/toyger_600x600.jpg","toyger","cat","TokJIZlNAMINALJHrEpIuBUb","27","Male","Some College","No","","","","","","","cat","cats","typical","toyger","toyger_mz_2","https://www.flickr.com/photos/erlon10/8088944726","toyger","_600x600.jpg","toyger_600x600.jpg","../images/toyger_600x600.jpg"
"",1887,"survey-text-columnResponse",9,26660,"0.0-9.0","p141601","9,1,2,8,7,2,5,7","R_3MgTKplUlOBQbPK","{""Q0"":""dog""}",0,"dog","lib/images/yorkshireterrier_600x600.jpg","yorkshireterrier","dog","TokJIZlNAMINALJHrEpIuBUb","27","Male","Some College","No","","","","","","","dog","dogs","atypical","yorkshire terrier","yorkshireterrier_hw","https://pixabay.com/photos/yorkshire-terrier-terrier-dog-361730/","yorkshireterrier","_600x600.jpg","yorkshireterrier_600x600.jpg","../images/yorkshireterrier_600x600.jpg"
"",2325,"survey-text-columnResponse",10,29188,"0.0-10.0","p141601","9,1,2,8,7,2,5,7","R_3MgTKplUlOBQbPK","{""Q0"":""vulture""}",0,"vulture","lib/images/vulture_600x600.jpg","vulture","vulture","TokJIZlNAMINALJHrEpIuBUb","27","Male","Some College","No","","","","","","","bird","birds","atypical","vulture","vulture_boss","BOSS","vulture","_600x600.jpg","vulture_600x600.jpg","../images/vulture_600x600.jpg"
"[{""page_index"":0,""viewing_time"":6045}]",6046,"instructions",0,6053,"0.0-0.0","p152377","0,8,1,1,3,2,2,3","R_1JUDS7aUmEpARDu","",NA,"","","","","PQkdgyCNAMINALDtjGQTlKqB","26","Male","High School / GED","No","","","","","","",NA,NA,NA,NA,NA,NA,NA,NA,NA,NA
"",3636,"survey-text-columnResponse",1,9690,"0.0-1.0","p152377","0,8,1,1,3,2,2,3","R_1JUDS7aUmEpARDu","{""Q0"":""horse""}",0,"horse","lib/images/horse.jpg","horse.jpg","horse","PQkdgyCNAMINALDtjGQTlKqB","26","Male","High School / GED","No","","","","","","",NA,NA,NA,NA,NA,NA,NA,NA,NA,NA
"",3598,"survey-text-columnResponse",2,13489,"0.0-2.0","p152377","0,8,1,1,3,2,2,3","R_1JUDS7aUmEpARDu","{""Q0"":""fish""}",0,"fish","lib/images/bluegill_600x600.jpg","bluegill","fish","PQkdgyCNAMINALDtjGQTlKqB","26","Male","High School / GED","No","","","","","","","fish","fish","typical","bluegill","bluegill_mz","https://commons.wikimedia.org/wiki/File:Bluegill_(fish).jpg","bluegill","_600x600.jpg","bluegill_600x600.jpg","../images/bluegill_600x600.jpg"
"",2298,"survey-text-columnResponse",3,15989,"0.0-3.0","p152377","0,8,1,1,3,2,2,3","R_1JUDS7aUmEpARDu","{""Q0"":""cat""}",0,"cat","lib/images/bengal_600x600.jpg","bengal","cat","PQkdgyCNAMINALDtjGQTlKqB","26","Male","High School / GED","No","","","","","","","cat","cats","typical","bengal","bengal_mz_4","https://commons.wikimedia.org/wiki/File:Brown_spotted_tabby_bengal_cat.jpg","bengal","_600x600.jpg","bengal_600x600.jpg","../images/bengal_600x600.jpg"
"",3936,"survey-text-columnResponse",4,20126,"0.0-4.0","p152377","0,8,1,1,3,2,2,3","R_1JUDS7aUmEpARDu","{""Q0"":""squid""}",0,"squid","lib/images/cuttlefish_600x600.jpg","cuttlefish","squid","PQkdgyCNAMINALDtjGQTlKqB","26","Male","High School / GED","No","","","","","","","fish","fish","atypical","cuttlefish","cuttlefish_boss","BOSS","cuttlefish","_600x600.jpg","cuttlefish_600x600.jpg","../images/cuttlefish_600x600.jpg"
"",2242,"survey-text-columnResponse",5,22570,"0.0-5.0","p152377","0,8,1,1,3,2,2,3","R_1JUDS7aUmEpARDu","{""Q0"":""cat""}",0,"cat","lib/images/cornishrex_600x600.jpg","cornishrex","cat","PQkdgyCNAMINALDtjGQTlKqB","26","Male","High School / GED","No","","","","","","","cat","cats","atypical","Cornish rex","cornishrex_mz_1","https://commons.wikimedia.org/wiki/File:Cornish_Rex.jpg","cornishrex","_600x600.jpg","cornishrex_600x600.jpg","../images/cornishrex_600x600.jpg"
"",3422,"survey-text-columnResponse",6,26194,"0.0-6.0","p152377","0,8,1,1,3,2,2,3","R_1JUDS7aUmEpARDu","{""Q0"":""giraffe""}",0,"giraffe","lib/images/giraffe.jpg","giraffe.jpg","giraffe","PQkdgyCNAMINALDtjGQTlKqB","26","Male","High School / GED","No","","","","","","",NA,NA,NA,NA,NA,NA,NA,NA,NA,NA
"",3759,"survey-text-columnResponse",7,30155,"0.0-7.0","p152377","0,8,1,1,3,2,2,3","R_1JUDS7aUmEpARDu","{""Q0"":""bird""}",0,"bird","lib/images/seagull_600x600.jpg","seagull","bird","PQkdgyCNAMINALDtjGQTlKqB","26","Male","High School / GED","No","","","","","","","bird","birds","typical","seagull","seagull_mz","https://unsplash.com/photos/qrP9Q4ttNLs","seagull","_600x600.jpg","seagull_600x600.jpg","../images/seagull_600x600.jpg"
"",3755,"survey-text-columnResponse",8,34111,"0.0-8.0","p152377","0,8,1,1,3,2,2,3","R_1JUDS7aUmEpARDu","{""Q0"":""dog""}",0,"dog","lib/images/dalmatian_600x600.jpg","dalmatian","dog","PQkdgyCNAMINALDtjGQTlKqB","26","Male","High School / GED","No","","","","","","","dog","dogs","typical","dalmatian","dalmatian_boss","BOSS","dalmatian","_600x600.jpg","dalmatian_600x600.jpg","../images/dalmatian_600x600.jpg"
"",2788,"survey-text-columnResponse",9,37101,"0.0-9.0","p152377","0,8,1,1,3,2,2,3","R_1JUDS7aUmEpARDu","{""Q0"":""dog""}",0,"dog","lib/images/greyhound_600x600.jpg","greyhound","dog","PQkdgyCNAMINALDtjGQTlKqB","26","Male","High School / GED","No","","","","","","","dog","dogs","atypical","greyhound","greyhound_BOSS","BOSS","greyhound","_600x600.jpg","greyhound_600x600.jpg","../images/greyhound_600x600.jpg"
"",4063,"survey-text-columnResponse",10,41365,"0.0-10.0","p152377","0,8,1,1,3,2,2,3","R_1JUDS7aUmEpARDu","{""Q0"":""bird""}",0,"bird","lib/images/heron_600x600.jpg","heron","bird","PQkdgyCNAMINALDtjGQTlKqB","26","Male","High School / GED","No","","","","","","","bird","birds","atypical","heron","heron_boss","BOSS","heron","_600x600.jpg","heron_600x600.jpg","../images/heron_600x600.jpg"
"[{""page_index"":0,""viewing_time"":6573}]",6573,"instructions",0,6578,"0.0-0.0","p154460","6,9,1,4,2,0,0,4","R_3078QYsGCIeHCju","",NA,"","","","","cyTuKvGNAMINALiDLXLYrzZV","22","Male","High School / GED","No","","","","","","",NA,NA,NA,NA,NA,NA,NA,NA,NA,NA
"",7534,"survey-text-columnResponse",1,14115,"0.0-1.0","p154460","6,9,1,4,2,0,0,4","R_3078QYsGCIeHCju","{""Q0"":""horse""}",0,"horse","lib/images/horse.jpg","horse.jpg","horse","cyTuKvGNAMINALiDLXLYrzZV","22","Male","High School / GED","No","","","","","","",NA,NA,NA,NA,NA,NA,NA,NA,NA,NA
"",5241,"survey-text-columnResponse",2,19560,"0.0-2.0","p154460","6,9,1,4,2,0,0,4","R_3078QYsGCIeHCju","{""Q0"":""dog""}",0,"dog","lib/images/foxhound_600x600.jpg","foxhound","dog","cyTuKvGNAMINALiDLXLYrzZV","22","Male","High School / GED","No","","","","","","","dog","dogs","typical","american foxhound","foxhound_mz","https://commons.wikimedia.org/wiki/File:BIR_Grupp_6-_AMERICAN_FOXHOUND,_J%C3%A4%C3%A4r%C3%A4p%C3%A4%C3%A4_Flikka_(23607404123).jpg","foxhound","_600x600.jpg","foxhound_600x600.jpg","../images/foxhound_600x600.jpg"
"",10886,"survey-text-columnResponse",3,30651,"0.0-3.0","p154460","6,9,1,4,2,0,0,4","R_3078QYsGCIeHCju","{""Q0"":""bird""}",0,"bird","lib/images/puffin_600x600.jpg","puffin","bird","cyTuKvGNAMINALiDLXLYrzZV","22","Male","High School / GED","No","","","","","","","bird","birds","atypical","puffin","puffin_hw","https://unsplash.com/photos/Dq88eI3asTE","puffin","_600x600.jpg","puffin_600x600.jpg","../images/puffin_600x600.jpg"
"",3353,"survey-text-columnResponse",4,34206,"0.0-4.0","p154460","6,9,1,4,2,0,0,4","R_3078QYsGCIeHCju","{""Q0"":""dog""}",0,"dog","lib/images/chihuahua_600x600.jpg","chihuahua","dog","cyTuKvGNAMINALiDLXLYrzZV","22","Male","High School / GED","No","","","","","","","dog","dogs","atypical","chihuahua","chihuahua_mz_4","https://www.pxfuel.com/en/free-photo-ojhbm","chihuahua","_600x600.jpg","chihuahua_600x600.jpg","../images/chihuahua_600x600.jpg"
"",5369,"survey-text-columnResponse",5,39778,"0.0-5.0","p154460","6,9,1,4,2,0,0,4","R_3078QYsGCIeHCju","{""Q0"":""fish""}",0,"fish","lib/images/betafish_600x600.jpg","betafish","fish","cyTuKvGNAMINALiDLXLYrzZV","22","Male","High School / GED","No","","","","","","","fish","fish","atypical","beta  fish","betafish_mz_1","https://commons.wikimedia.org/wiki/File:Male_Betta_-34245661920.jpg","betafish","_600x600.jpg","betafish_600x600.jpg","../images/betafish_600x600.jpg"
"",3560,"survey-text-columnResponse",6,43543,"0.0-6.0","p154460","6,9,1,4,2,0,0,4","R_3078QYsGCIeHCju","{""Q0"":""giraffe""}",0,"giraffe","lib/images/giraffe.jpg","giraffe.jpg","giraffe","cyTuKvGNAMINALiDLXLYrzZV","22","Male","High School / GED","No","","","","","","",NA,NA,NA,NA,NA,NA,NA,NA,NA,NA
"",8276,"survey-text-columnResponse",7,52023,"0.0-7.0","p154460","6,9,1,4,2,0,0,4","R_3078QYsGCIeHCju","{""Q0"":""goldfish""}",0,"goldfish","lib/images/clownfish_600x600.jpg","clownfish","goldfish","cyTuKvGNAMINALiDLXLYrzZV","22","Male","High School / GED","No","","","","","","","fish","fish","typical","clownfish","clownfish_mz","https://unsplash.com/photos/rEM3cK8F1pk","clownfish","_600x600.jpg","clownfish_600x600.jpg","../images/clownfish_600x600.jpg"
"",6861,"survey-text-columnResponse",8,59085,"0.0-8.0","p154460","6,9,1,4,2,0,0,4","R_3078QYsGCIeHCju","{""Q0"":""cat""}",0,"cat","lib/images/cornishrex_600x600.jpg","cornishrex","cat","cyTuKvGNAMINALiDLXLYrzZV","22","Male","High School / GED","No","","","","","","","cat","cats","atypical","Cornish rex","cornishrex_mz_1","https://commons.wikimedia.org/wiki/File:Cornish_Rex.jpg","cornishrex","_600x600.jpg","cornishrex_600x600.jpg","../images/cornishrex_600x600.jpg"
"",3358,"survey-text-columnResponse",9,62647,"0.0-9.0","p154460","6,9,1,4,2,0,0,4","R_3078QYsGCIeHCju","{""Q0"":""bird""}",0,"bird","lib/images/sparrow_600x600.jpg","sparrow","bird","cyTuKvGNAMINALiDLXLYrzZV","22","Male","High School / GED","No","","","","","","","bird","birds","typical","sparrow","sparrow_mz","https://commons.wikimedia.org/wiki/File:Tree_Sparrow_Japan_Flip.jpg","sparrow","_600x600.jpg","sparrow_600x600.jpg","../images/sparrow_600x600.jpg"
"",2600,"survey-text-columnResponse",10,65451,"0.0-10.0","p154460","6,9,1,4,2,0,0,4","R_3078QYsGCIeHCju","{""Q0"":""cat""}",0,"cat","lib/images/burmese_600x600.jpg","burmese","cat","cyTuKvGNAMINALiDLXLYrzZV","22","Male","High School / GED","No","","","","","","","cat","cats","typical","burmese","burmese_hw","https://pixabay.com/photos/animals-cute-cat-pet-breed-burmese-3273782/","burmese","_600x600.jpg","burmese_600x600.jpg","../images/burmese_600x600.jpg"
"[{""page_index"":0,""viewing_time"":15121}]",15121,"instructions",0,15145,"0.0-0.0","p155079","6,8,5,1,6,6,4,3","R_29ssiBOlk21QFgZ","",NA,"","","","","kjdMzUBNAMINALwLlqlktKvF","32","Male","Masters Degree","Yes","ENGLISH","","","","","english",NA,NA,NA,NA,NA,NA,NA,NA,NA,NA
"",9312,"survey-text-columnResponse",1,24460,"0.0-1.0","p155079","6,8,5,1,6,6,4,3","R_29ssiBOlk21QFgZ","{""Q0"":""HORSE""}",0,"HORSE","lib/images/horse.jpg","horse.jpg","horse","kjdMzUBNAMINALwLlqlktKvF","32","Male","Masters Degree","Yes","ENGLISH","","","","","english",NA,NA,NA,NA,NA,NA,NA,NA,NA,NA
"",27118,"survey-text-columnResponse",2,51785,"0.0-2.0","p155079","6,8,5,1,6,6,4,3","R_29ssiBOlk21QFgZ","{""Q0"":""PUFFER FISH""}",0,"PUFFER FISH","lib/images/pufferfish_600x600.jpg","pufferfish","puffer fish","kjdMzUBNAMINALwLlqlktKvF","32","Male","Masters Degree","Yes","ENGLISH","","","","","english","fish","fish","atypical","pufferfish","pufferfish_er","EmbersonRubenstein","pufferfish","_600x600.jpg","pufferfish_600x600.jpg","../images/pufferfish_600x600.jpg"
"",25312,"survey-text-columnResponse",3,77301,"0.0-3.0","p155079","6,8,5,1,6,6,4,3","R_29ssiBOlk21QFgZ","{""Q0"":""HUNGARIAN PULI""}",0,"HUNGARIAN PULI","lib/images/sheepdog_600x600.jpg","sheepdog","hungarian puli","kjdMzUBNAMINALwLlqlktKvF","32","Male","Masters Degree","Yes","ENGLISH","","","","","english","dog","dogs","atypical","sheepdog","sheepdog_er","EmbersonRubenstein","sheepdog","_600x600.jpg","sheepdog_600x600.jpg","../images/sheepdog_600x600.jpg"
"",21779,"survey-text-columnResponse",4,99294,"0.0-4.0","p155079","6,8,5,1,6,6,4,3","R_29ssiBOlk21QFgZ","{""Q0"":""CAT""}",0,"CAT","lib/images/bengal_600x600.jpg","bengal","cat","kjdMzUBNAMINALwLlqlktKvF","32","Male","Masters Degree","Yes","ENGLISH","","","","","english","cat","cats","typical","bengal","bengal_mz_4","https://commons.wikimedia.org/wiki/File:Brown_spotted_tabby_bengal_cat.jpg","bengal","_600x600.jpg","bengal_600x600.jpg","../images/bengal_600x600.jpg"
"",21084,"survey-text-columnResponse",5,120581,"0.0-5.0","p155079","6,8,5,1,6,6,4,3","R_29ssiBOlk21QFgZ","{""Q0"":""SEAGULL""}",0,"SEAGULL","lib/images/seagull_600x600.jpg","seagull","seagull","kjdMzUBNAMINALwLlqlktKvF","32","Male","Masters Degree","Yes","ENGLISH","","","","","english","bird","birds","typical","seagull","seagull_mz","https://unsplash.com/photos/qrP9Q4ttNLs","seagull","_600x600.jpg","seagull_600x600.jpg","../images/seagull_600x600.jpg"
"",28409,"survey-text-columnResponse",6,149197,"0.0-6.0","p155079","6,8,5,1,6,6,4,3","R_29ssiBOlk21QFgZ","{""Q0"":""GIRAFFE""}",0,"GIRAFFE","lib/images/giraffe.jpg","giraffe.jpg","giraffe","kjdMzUBNAMINALwLlqlktKvF","32","Male","Masters Degree","Yes","ENGLISH","","","","","english",NA,NA,NA,NA,NA,NA,NA,NA,NA,NA
"",22821,"survey-text-columnResponse",7,172221,"0.0-7.0","p155079","6,8,5,1,6,6,4,3","R_29ssiBOlk21QFgZ","{""Q0"":""ATLANTIC PUFFIN""}",0,"ATLANTIC PUFFIN","lib/images/puffin_600x600.jpg","puffin","atlantic puffin","kjdMzUBNAMINALwLlqlktKvF","32","Male","Masters Degree","Yes","ENGLISH","","","","","english","bird","birds","atypical","puffin","puffin_hw","https://unsplash.com/photos/Dq88eI3asTE","puffin","_600x600.jpg","puffin_600x600.jpg","../images/puffin_600x600.jpg"
"",17515,"survey-text-columnResponse",8,189942,"0.0-8.0","p155079","6,8,5,1,6,6,4,3","R_29ssiBOlk21QFgZ","{""Q0"":""CICHLA""}",0,"CICHLA","lib/images/bluegill_600x600.jpg","bluegill","cichla","kjdMzUBNAMINALwLlqlktKvF","32","Male","Masters Degree","Yes","ENGLISH","","","","","english","fish","fish","typical","bluegill","bluegill_mz","https://commons.wikimedia.org/wiki/File:Bluegill_(fish).jpg","bluegill","_600x600.jpg","bluegill_600x600.jpg","../images/bluegill_600x600.jpg"
"",35427,"survey-text-columnResponse",9,225573,"0.0-9.0","p155079","6,8,5,1,6,6,4,3","R_29ssiBOlk21QFgZ","{""Q0"":""ROTTWEILER""}",0,"ROTTWEILER","lib/images/rottweiler_600x600.jpg","rottweiler","rottweiler","kjdMzUBNAMINALwLlqlktKvF","32","Male","Masters Degree","Yes","ENGLISH","","","","","english","dog","dogs","typical","rottweiler","rottweiler_mz_2","https://commons.wikimedia.org/wiki/File:02_I_Exposici%C3%B3n_Monogr%C3%A1fica_Club_Rottweiler_de_Espa%C3%B1a_-_Santa_Brigida_-_Gran_Canaria.jpg","rottweiler","_600x600.jpg","rottweiler_600x600.jpg","../images/rottweiler_600x600.jpg"
"",31332,"survey-text-columnResponse",10,257108,"0.0-10.0","p155079","6,8,5,1,6,6,4,3","R_29ssiBOlk21QFgZ","{""Q0"":""SIAMESE CAT""}",0,"SIAMESE CAT","lib/images/siamese_600x600.jpg","siamese","siamese cat","kjdMzUBNAMINALwLlqlktKvF","32","Male","Masters Degree","Yes","ENGLISH","","","","","english","cat","cats","atypical","siamese","siamesecat_hw_2","https://pixabay.com/photos/cat-siamese-cat-fur-kitten-2068462/","siamese","_600x600.jpg","siamese_600x600.jpg","../images/siamese_600x600.jpg"
"[{""page_index"":0,""viewing_time"":7976}]",7977,"instructions",0,7991,"0.0-0.0","p158674","7,4,2,3,3,4,7,3","R_1Eaq3aiJhFdMajm","",NA,"","","","","rxBCBoLNAMINALbWXDfkelxv","65","Male","Associate's Degree/technical school","No","","","","","","",NA,NA,NA,NA,NA,NA,NA,NA,NA,NA
"",7369,"survey-text-columnResponse",1,15362,"0.0-1.0","p158674","7,4,2,3,3,4,7,3","R_1Eaq3aiJhFdMajm","{""Q0"":""giraffe""}",0,"giraffe","lib/images/giraffe.jpg","giraffe.jpg","giraffe","rxBCBoLNAMINALbWXDfkelxv","65","Male","Associate's Degree/technical school","No","","","","","","",NA,NA,NA,NA,NA,NA,NA,NA,NA,NA
"",8908,"survey-text-columnResponse",2,24498,"0.0-2.0","p158674","7,4,2,3,3,4,7,3","R_1Eaq3aiJhFdMajm","{""Q0"":""ray""}",0,"ray","lib/images/stingray_600x600.jpg","stingray","ray","rxBCBoLNAMINALbWXDfkelxv","65","Male","Associate's Degree/technical school","No","","","","","","","fish","fish","atypical","stingray","stingray_boss","BOSS","stingray","_600x600.jpg","stingray_600x600.jpg","../images/stingray_600x600.jpg"
"",5415,"survey-text-columnResponse",3,30124,"0.0-3.0","p158674","7,4,2,3,3,4,7,3","R_1Eaq3aiJhFdMajm","{""Q0"":""bird""}",0,"bird","lib/images/goldfinch_600x600.jpg","goldfinch","bird","rxBCBoLNAMINALbWXDfkelxv","65","Male","Associate's Degree/technical school","No","","","","","","","bird","birds","typical","goldfinch","goldfinch_boss","BOSS","goldfinch","_600x600.jpg","goldfinch_600x600.jpg","../images/goldfinch_600x600.jpg"
"",4063,"survey-text-columnResponse",4,34391,"0.0-4.0","p158674","7,4,2,3,3,4,7,3","R_1Eaq3aiJhFdMajm","{""Q0"":""dog""}",0,"dog","lib/images/goldenretriever_600x600.jpg","goldenretriever","dog","rxBCBoLNAMINALbWXDfkelxv","65","Male","Associate's Degree/technical school","No","","","","","","","dog","dogs","typical","golden retriever","goldenretriever_hw","https://pixabay.com/photos/dog-lake-constance-golden-retriever-1994692/","goldenretriever","_600x600.jpg","goldenretriever_600x600.jpg","../images/goldenretriever_600x600.jpg"
"",4027,"survey-text-columnResponse",5,38619,"0.0-5.0","p158674","7,4,2,3,3,4,7,3","R_1Eaq3aiJhFdMajm","{""Q0"":""cat""}",0,"cat","lib/images/shorthair_calico_600x600.jpg","shorthair_calico","cat","rxBCBoLNAMINALbWXDfkelxv","65","Male","Associate's Degree/technical school","No","","","","","","","cat","cats","typical","british shorthair","britishshorthair_calico_mz","https://commons.wikimedia.org/wiki/File:British_shorthair_with_calico_coat_(2).jpg","shorthair_calico","_600x600.jpg","shorthair_calico_600x600.jpg","../images/shorthair_calico_600x600.jpg"
"",5202,"survey-text-columnResponse",6,44024,"0.0-6.0","p158674","7,4,2,3,3,4,7,3","R_1Eaq3aiJhFdMajm","{""Q0"":""horse""}",0,"horse","lib/images/horse.jpg","horse.jpg","horse","rxBCBoLNAMINALbWXDfkelxv","65","Male","Associate's Degree/technical school","No","","","","","","",NA,NA,NA,NA,NA,NA,NA,NA,NA,NA
"",8889,"survey-text-columnResponse",7,53116,"0.0-7.0","p158674","7,4,2,3,3,4,7,3","R_1Eaq3aiJhFdMajm","{""Q0"":""macaw""}",0,"macaw","lib/images/toucan_600x600.jpg","toucan","macaw","rxBCBoLNAMINALbWXDfkelxv","65","Male","Associate's Degree/technical school","No","","","","","","","bird","birds","atypical","toucan","toucan_boss","BOSS","toucan","_600x600.jpg","toucan_600x600.jpg","../images/toucan_600x600.jpg"
