"view_history","rt","trial_type","trial_index","time_elapsed","internal_node_id","subject","condition","category_assignment_1","category_assignment_2","qualtricsId","responses","rating0","image","imageName","typicality_rating","age","gender","education_level","languages_besides_english","language_1","language_2","language_3","language_4","other_languages","native_language"
"[{""page_index"":0,""viewing_time"":8487}]",8488,"instructions",0,8522,"0.0-0.0","p111327",13,1,3,"R_2TzB26cTZ2vBF64","",NA,"","",NA,34,"Male","Bachelor's Degree","No","","","","","",""
"",4485,"survey-likert",1,13010,"0.0-1.0","p111327",13,1,3,"R_2TzB26cTZ2vBF64","{""Q0"":3}",3,"lib/images/britishshorthair_600x600.jpg","britishshorthair",4,34,"Male","Bachelor's Degree","No","","","","","",""
"",2554,"survey-likert",2,15581,"0.0-2.0","p111327",13,1,3,"R_2TzB26cTZ2vBF64","{""Q0"":2}",2,"lib/images/burmese_600x600.jpg","burmese",3,34,"Male","Bachelor's Degree","No","","","","","",""
"",4636,"survey-likert",3,20234,"0.0-3.0","p111327",13,1,3,"R_2TzB26cTZ2vBF64","{""Q0"":1}",1,"lib/images/siamese_600x600.jpg","siamese",2,34,"Male","Bachelor's Degree","No","","","","","",""
"",12020,"survey-likert",4,32271,"0.0-4.0","p111327",13,1,3,"R_2TzB26cTZ2vBF64","{""Q0"":2}",2,"lib/images/arabianmau_600x600.jpg","arabianmau",3,34,"Male","Bachelor's Degree","No","","","","","",""
"",2959,"survey-likert",5,35247,"0.0-5.0","p111327",13,1,3,"R_2TzB26cTZ2vBF64","{""Q0"":2}",2,"lib/images/siberian_600x600.jpg","siberian",3,34,"Male","Bachelor's Degree","No","","","","","",""
"",3049,"survey-likert",6,38313,"0.0-6.0","p111327",13,1,3,"R_2TzB26cTZ2vBF64","{""Q0"":1}",1,"lib/images/exotic_600x600.jpg","exotic",2,34,"Male","Bachelor's Degree","No","","","","","",""
"",3215,"survey-likert",7,41543,"0.0-7.0","p111327",13,1,3,"R_2TzB26cTZ2vBF64","{""Q0"":0}",0,"lib/images/sphynx_600x600.jpg","sphynx",1,34,"Male","Bachelor's Degree","No","","","","","",""
"",2991,"survey-likert",8,44550,"0.0-8.0","p111327",13,1,3,"R_2TzB26cTZ2vBF64","{""Q0"":3}",3,"lib/images/americancurl_600x600.jpg","americancurl",4,34,"Male","Bachelor's Degree","No","","","","","",""
"",2218,"survey-likert",9,46783,"0.0-9.0","p111327",13,1,3,"R_2TzB26cTZ2vBF64","{""Q0"":2}",2,"lib/images/chartreux_600x600.jpg","chartreux",3,34,"Male","Bachelor's Degree","No","","","","","",""
"",2965,"survey-likert",10,49764,"0.0-10.0","p111327",13,1,3,"R_2TzB26cTZ2vBF64","{""Q0"":0}",0,"lib/images/oriental_600x600.jpg","oriental",1,34,"Male","Bachelor's Degree","No","","","","","",""
"",2743,"survey-likert",11,52523,"0.0-11.0","p111327",13,1,3,"R_2TzB26cTZ2vBF64","{""Q0"":0}",0,"lib/images/cornishrex_600x600.jpg","cornishrex",1,34,"Male","Bachelor's Degree","No","","","","","",""
"",4303,"survey-likert",12,56843,"0.0-12.0","p111327",13,1,3,"R_2TzB26cTZ2vBF64","{""Q0"":4}",4,"lib/images/tabby_600x600.jpg","tabby",5,34,"Male","Bachelor's Degree","No","","","","","",""
"",2087,"survey-likert",13,58945,"0.0-13.0","p111327",13,1,3,"R_2TzB26cTZ2vBF64","{""Q0"":3}",3,"lib/images/egyptianmau_600x600.jpg","egyptianmau",4,34,"Male","Bachelor's Degree","No","","","","","",""
"",2842,"survey-likert",14,61803,"0.0-14.0","p111327",13,1,3,"R_2TzB26cTZ2vBF64","{""Q0"":2}",2,"lib/images/shorthair_calico_600x600.jpg","shorthair_calico",3,34,"Male","Bachelor's Degree","No","","","","","",""
"",2434,"survey-likert",15,64253,"0.0-15.0","p111327",13,1,3,"R_2TzB26cTZ2vBF64","{""Q0"":1}",1,"lib/images/sandcat_600x600.jpg","sandcat",2,34,"Male","Bachelor's Degree","No","","","","","",""
"",2108,"survey-likert",16,66377,"0.0-16.0","p111327",13,1,3,"R_2TzB26cTZ2vBF64","{""Q0"":2}",2,"lib/images/bengal_600x600.jpg","bengal",3,34,"Male","Bachelor's Degree","No","","","","","",""
"",1923,"survey-likert",17,68316,"0.0-17.0","p111327",13,1,3,"R_2TzB26cTZ2vBF64","{""Q0"":3}",3,"lib/images/toyger_600x600.jpg","toyger",4,34,"Male","Bachelor's Degree","No","","","","","",""
"[{""page_index"":0,""viewing_time"":3954}]",3954,"instructions",18,72286,"0.0-18.0","p111327",13,1,3,"R_2TzB26cTZ2vBF64","",NA,"","",NA,34,"Male","Bachelor's Degree","No","","","","","",""
"",4605,"survey-likert",19,76893,"0.0-19.0","p111327",13,1,3,"R_2TzB26cTZ2vBF64","{""Q0"":1}",1,"lib/images/stingray_600x600.jpg","stingray",2,34,"Male","Bachelor's Degree","No","","","","","",""
"",2464,"survey-likert",20,79372,"0.0-20.0","p111327",13,1,3,"R_2TzB26cTZ2vBF64","{""Q0"":1}",1,"lib/images/seahorse_600x600.jpg","seahorse",2,34,"Male","Bachelor's Degree","No","","","","","",""
"",3082,"survey-likert",21,82471,"0.0-21.0","p111327",13,1,3,"R_2TzB26cTZ2vBF64","{""Q0"":3}",3,"lib/images/clownfish_600x600.jpg","clownfish",4,34,"Male","Bachelor's Degree","No","","","","","",""
"",1932,"survey-likert",22,84418,"0.0-22.0","p111327",13,1,3,"R_2TzB26cTZ2vBF64","{""Q0"":2}",2,"lib/images/sturgeon_600x600.jpg","sturgeon",3,34,"Male","Bachelor's Degree","No","","","","","",""
"",3783,"survey-likert",23,88219,"0.0-23.0","p111327",13,1,3,"R_2TzB26cTZ2vBF64","{""Q0"":1}",1,"lib/images/angelfish_600x600.jpg","angelfish",2,34,"Male","Bachelor's Degree","No","","","","","",""
"",3262,"survey-likert",24,91497,"0.0-24.0","p111327",13,1,3,"R_2TzB26cTZ2vBF64","{""Q0"":4}",4,"lib/images/salmon_600x600.jpg","salmon",5,34,"Male","Bachelor's Degree","No","","","","","",""
"",2391,"survey-likert",25,93905,"0.0-25.0","p111327",13,1,3,"R_2TzB26cTZ2vBF64","{""Q0"":0}",0,"lib/images/catfish_600x600.jpg","catfish",1,34,"Male","Bachelor's Degree","No","","","","","",""
"",2456,"survey-likert",26,96376,"0.0-26.0","p111327",13,1,3,"R_2TzB26cTZ2vBF64","{""Q0"":0}",0,"lib/images/betafish_600x600.jpg","betafish",1,34,"Male","Bachelor's Degree","No","","","","","",""
"",2100,"survey-likert",27,98494,"0.0-27.0","p111327",13,1,3,"R_2TzB26cTZ2vBF64","{""Q0"":1}",1,"lib/images/koi_600x600.jpg","koi",2,34,"Male","Bachelor's Degree","No","","","","","",""
"",2029,"survey-likert",28,100543,"0.0-28.0","p111327",13,1,3,"R_2TzB26cTZ2vBF64","{""Q0"":0}",0,"lib/images/lionfish_600x600.jpg","lionfish",1,34,"Male","Bachelor's Degree","No","","","","","",""
"",3306,"survey-likert",29,103864,"0.0-29.0","p111327",13,1,3,"R_2TzB26cTZ2vBF64","{""Q0"":3}",3,"lib/images/bluegill_600x600.jpg","bluegill",4,34,"Male","Bachelor's Degree","No","","","","","",""
"",3402,"survey-likert",30,107287,"0.0-30.0","p111327",13,1,3,"R_2TzB26cTZ2vBF64","{""Q0"":0}",0,"lib/images/goldfish_600x600.jpg","goldfish",1,34,"Male","Bachelor's Degree","No","","","","","",""
"",2611,"survey-likert",31,109915,"0.0-31.0","p111327",13,1,3,"R_2TzB26cTZ2vBF64","{""Q0"":0}",0,"lib/images/cuttlefish_600x600.jpg","cuttlefish",1,34,"Male","Bachelor's Degree","No","","","","","",""
"",2980,"survey-likert",32,112910,"0.0-32.0","p111327",13,1,3,"R_2TzB26cTZ2vBF64","{""Q0"":1}",1,"lib/images/bass_600x600.jpg","bass",2,34,"Male","Bachelor's Degree","No","","","","","",""
"",2518,"survey-likert",33,115444,"0.0-33.0","p111327",13,1,3,"R_2TzB26cTZ2vBF64","{""Q0"":1}",1,"lib/images/pufferfish_600x600.jpg","pufferfish",2,34,"Male","Bachelor's Degree","No","","","","","",""
"",2633,"survey-likert",34,118094,"0.0-34.0","p111327",13,1,3,"R_2TzB26cTZ2vBF64","{""Q0"":0}",0,"lib/images/bluetang_600x600.jpg","bluetang",1,34,"Male","Bachelor's Degree","No","","","","","",""
"",2651,"survey-likert",35,120761,"0.0-35.0","p111327",13,1,3,"R_2TzB26cTZ2vBF64","{""Q0"":1}",1,"lib/images/sergeantmajor_600x600.jpg","sergeantmajor",2,34,"Male","Bachelor's Degree","No","","","","","",""
"[{""page_index"":0,""viewing_time"":17000}]",17001,"instructions",0,17005,"0.0-0.0","p129425",13,1,3,"R_3EQZvp9STvkKpWb","",NA,"","",NA,52,"Female","Bachelor's Degree","No","","","","","",""
"",19615,"survey-likert",1,36621,"0.0-1.0","p129425",13,1,3,"R_3EQZvp9STvkKpWb","{""Q0"":1}",1,"lib/images/cornishrex_600x600.jpg","cornishrex",2,52,"Female","Bachelor's Degree","No","","","","","",""
"",2513,"survey-likert",2,39135,"0.0-2.0","p129425",13,1,3,"R_3EQZvp9STvkKpWb","{""Q0"":3}",3,"lib/images/arabianmau_600x600.jpg","arabianmau",4,52,"Female","Bachelor's Degree","No","","","","","",""
"",3697,"survey-likert",3,42834,"0.0-3.0","p129425",13,1,3,"R_3EQZvp9STvkKpWb","{""Q0"":1}",1,"lib/images/egyptianmau_600x600.jpg","egyptianmau",2,52,"Female","Bachelor's Degree","No","","","","","",""
"",3296,"survey-likert",4,46131,"0.0-4.0","p129425",13,1,3,"R_3EQZvp9STvkKpWb","{""Q0"":0}",0,"lib/images/oriental_600x600.jpg","oriental",1,52,"Female","Bachelor's Degree","No","","","","","",""
"",3339,"survey-likert",5,49471,"0.0-5.0","p129425",13,1,3,"R_3EQZvp9STvkKpWb","{""Q0"":3}",3,"lib/images/burmese_600x600.jpg","burmese",4,52,"Female","Bachelor's Degree","No","","","","","",""
"",3489,"survey-likert",6,52961,"0.0-6.0","p129425",13,1,3,"R_3EQZvp9STvkKpWb","{""Q0"":3}",3,"lib/images/britishshorthair_600x600.jpg","britishshorthair",4,52,"Female","Bachelor's Degree","No","","","","","",""
"",2575,"survey-likert",7,55538,"0.0-7.0","p129425",13,1,3,"R_3EQZvp9STvkKpWb","{""Q0"":0}",0,"lib/images/sphynx_600x600.jpg","sphynx",1,52,"Female","Bachelor's Degree","No","","","","","",""
"",3636,"survey-likert",8,59176,"0.0-8.0","p129425",13,1,3,"R_3EQZvp9STvkKpWb","{""Q0"":1}",1,"lib/images/toyger_600x600.jpg","toyger",2,52,"Female","Bachelor's Degree","No","","","","","",""
"",2746,"survey-likert",9,61923,"0.0-9.0","p129425",13,1,3,"R_3EQZvp9STvkKpWb","{""Q0"":2}",2,"lib/images/siberian_600x600.jpg","siberian",3,52,"Female","Bachelor's Degree","No","","","","","",""
"",2660,"survey-likert",10,64584,"0.0-10.0","p129425",13,1,3,"R_3EQZvp9STvkKpWb","{""Q0"":1}",1,"lib/images/bengal_600x600.jpg","bengal",2,52,"Female","Bachelor's Degree","No","","","","","",""
"",4349,"survey-likert",11,68935,"0.0-11.0","p129425",13,1,3,"R_3EQZvp9STvkKpWb","{""Q0"":2}",2,"lib/images/exotic_600x600.jpg","exotic",3,52,"Female","Bachelor's Degree","No","","","","","",""
"",2740,"survey-likert",12,71677,"0.0-12.0","p129425",13,1,3,"R_3EQZvp9STvkKpWb","{""Q0"":3}",3,"lib/images/siamese_600x600.jpg","siamese",4,52,"Female","Bachelor's Degree","No","","","","","",""
"",2321,"survey-likert",13,74000,"0.0-13.0","p129425",13,1,3,"R_3EQZvp9STvkKpWb","{""Q0"":3}",3,"lib/images/americancurl_600x600.jpg","americancurl",4,52,"Female","Bachelor's Degree","No","","","","","",""
"",2450,"survey-likert",14,76452,"0.0-14.0","p129425",13,1,3,"R_3EQZvp9STvkKpWb","{""Q0"":4}",4,"lib/images/tabby_600x600.jpg","tabby",5,52,"Female","Bachelor's Degree","No","","","","","",""
"",2208,"survey-likert",15,78662,"0.0-15.0","p129425",13,1,3,"R_3EQZvp9STvkKpWb","{""Q0"":4}",4,"lib/images/shorthair_calico_600x600.jpg","shorthair_calico",5,52,"Female","Bachelor's Degree","No","","","","","",""
"",2693,"survey-likert",16,81356,"0.0-16.0","p129425",13,1,3,"R_3EQZvp9STvkKpWb","{""Q0"":2}",2,"lib/images/chartreux_600x600.jpg","chartreux",3,52,"Female","Bachelor's Degree","No","","","","","",""
"",3608,"survey-likert",17,84965,"0.0-17.0","p129425",13,1,3,"R_3EQZvp9STvkKpWb","{""Q0"":0}",0,"lib/images/sandcat_600x600.jpg","sandcat",1,52,"Female","Bachelor's Degree","No","","","","","",""
"[{""page_index"":0,""viewing_time"":3405}]",3406,"instructions",18,88372,"0.0-18.0","p129425",13,1,3,"R_3EQZvp9STvkKpWb","",NA,"","",NA,52,"Female","Bachelor's Degree","No","","","","","",""
"",2754,"survey-likert",19,91128,"0.0-19.0","p129425",13,1,3,"R_3EQZvp9STvkKpWb","{""Q0"":3}",3,"lib/images/bass_600x600.jpg","bass",4,52,"Female","Bachelor's Degree","No","","","","","",""
"",2200,"survey-likert",20,93330,"0.0-20.0","p129425",13,1,3,"R_3EQZvp9STvkKpWb","{""Q0"":3}",3,"lib/images/salmon_600x600.jpg","salmon",4,52,"Female","Bachelor's Degree","No","","","","","",""
"",3109,"survey-likert",21,96440,"0.0-21.0","p129425",13,1,3,"R_3EQZvp9STvkKpWb","{""Q0"":0}",0,"lib/images/pufferfish_600x600.jpg","pufferfish",1,52,"Female","Bachelor's Degree","No","","","","","",""
"",2180,"survey-likert",22,98621,"0.0-22.0","p129425",13,1,3,"R_3EQZvp9STvkKpWb","{""Q0"":1}",1,"lib/images/sturgeon_600x600.jpg","sturgeon",2,52,"Female","Bachelor's Degree","No","","","","","",""
"",1834,"survey-likert",23,100456,"0.0-23.0","p129425",13,1,3,"R_3EQZvp9STvkKpWb","{""Q0"":0}",0,"lib/images/lionfish_600x600.jpg","lionfish",1,52,"Female","Bachelor's Degree","No","","","","","",""
"",1926,"survey-likert",24,102383,"0.0-24.0","p129425",13,1,3,"R_3EQZvp9STvkKpWb","{""Q0"":1}",1,"lib/images/betafish_600x600.jpg","betafish",2,52,"Female","Bachelor's Degree","No","","","","","",""
"",2149,"survey-likert",25,104533,"0.0-25.0","p129425",13,1,3,"R_3EQZvp9STvkKpWb","{""Q0"":4}",4,"lib/images/sergeantmajor_600x600.jpg","sergeantmajor",5,52,"Female","Bachelor's Degree","No","","","","","",""
"",2351,"survey-likert",26,106886,"0.0-26.0","p129425",13,1,3,"R_3EQZvp9STvkKpWb","{""Q0"":2}",2,"lib/images/catfish_600x600.jpg","catfish",3,52,"Female","Bachelor's Degree","No","","","","","",""
"",1986,"survey-likert",27,108874,"0.0-27.0","p129425",13,1,3,"R_3EQZvp9STvkKpWb","{""Q0"":3}",3,"lib/images/goldfish_600x600.jpg","goldfish",4,52,"Female","Bachelor's Degree","No","","","","","",""
"",2146,"survey-likert",28,111022,"0.0-28.0","p129425",13,1,3,"R_3EQZvp9STvkKpWb","{""Q0"":4}",4,"lib/images/bluegill_600x600.jpg","bluegill",5,52,"Female","Bachelor's Degree","No","","","","","",""
"",2349,"survey-likert",29,113373,"0.0-29.0","p129425",13,1,3,"R_3EQZvp9STvkKpWb","{""Q0"":3}",3,"lib/images/angelfish_600x600.jpg","angelfish",4,52,"Female","Bachelor's Degree","No","","","","","",""
"",2108,"survey-likert",30,115483,"0.0-30.0","p129425",13,1,3,"R_3EQZvp9STvkKpWb","{""Q0"":1}",1,"lib/images/stingray_600x600.jpg","stingray",2,52,"Female","Bachelor's Degree","No","","","","","",""
"",1861,"survey-likert",31,117346,"0.0-31.0","p129425",13,1,3,"R_3EQZvp9STvkKpWb","{""Q0"":2}",2,"lib/images/koi_600x600.jpg","koi",3,52,"Female","Bachelor's Degree","No","","","","","",""
"",2050,"survey-likert",32,119398,"0.0-32.0","p129425",13,1,3,"R_3EQZvp9STvkKpWb","{""Q0"":3}",3,"lib/images/bluetang_600x600.jpg","bluetang",4,52,"Female","Bachelor's Degree","No","","","","","",""
"",2984,"survey-likert",33,122383,"0.0-33.0","p129425",13,1,3,"R_3EQZvp9STvkKpWb","{""Q0"":3}",3,"lib/images/clownfish_600x600.jpg","clownfish",4,52,"Female","Bachelor's Degree","No","","","","","",""
"",2093,"survey-likert",34,124478,"0.0-34.0","p129425",13,1,3,"R_3EQZvp9STvkKpWb","{""Q0"":0}",0,"lib/images/seahorse_600x600.jpg","seahorse",1,52,"Female","Bachelor's Degree","No","","","","","",""
"",5268,"survey-likert",35,129748,"0.0-35.0","p129425",13,1,3,"R_3EQZvp9STvkKpWb","{""Q0"":0}",0,"lib/images/cuttlefish_600x600.jpg","cuttlefish",1,52,"Female","Bachelor's Degree","No","","","","","",""
"[{""page_index"":0,""viewing_time"":4271}]",4272,"instructions",0,4307,"0.0-0.0","p164631",2,0,2,"R_2PArtn4Voi6OecI","",NA,"","",NA,45,"Male","Bachelor's Degree","Yes","English","spanish","japenese","","","English"
"",6605,"survey-likert",1,10919,"0.0-1.0","p164631",2,0,2,"R_2PArtn4Voi6OecI","{""Q0"":2}",2,"lib/images/puffin_600x600.jpg","puffin",3,45,"Male","Bachelor's Degree","Yes","English","spanish","japenese","","","English"
"",4220,"survey-likert",2,15142,"0.0-2.0","p164631",2,0,2,"R_2PArtn4Voi6OecI","{""Q0"":4}",4,"lib/images/cedarwaxwing_600x600.jpg","cedarwaxwing",5,45,"Male","Bachelor's Degree","Yes","English","spanish","japenese","","","English"
"",3605,"survey-likert",3,18750,"0.0-3.0","p164631",2,0,2,"R_2PArtn4Voi6OecI","{""Q0"":4}",4,"lib/images/parrot_600x600.jpg","parrot",5,45,"Male","Bachelor's Degree","Yes","English","spanish","japenese","","","English"
"",4333,"survey-likert",4,23086,"0.0-4.0","p164631",2,0,2,"R_2PArtn4Voi6OecI","{""Q0"":4}",4,"lib/images/peacock_600x600.jpg","peacock",5,45,"Male","Bachelor's Degree","Yes","English","spanish","japenese","","","English"
"",4335,"survey-likert",5,27425,"0.0-5.0","p164631",2,0,2,"R_2PArtn4Voi6OecI","{""Q0"":3}",3,"lib/images/owl_600x600.jpg","owl",4,45,"Male","Bachelor's Degree","Yes","English","spanish","japenese","","","English"
"",4602,"survey-likert",6,32030,"0.0-6.0","p164631",2,0,2,"R_2PArtn4Voi6OecI","{""Q0"":2}",2,"lib/images/cardinal_600x600.jpg","cardinal",3,45,"Male","Bachelor's Degree","Yes","English","spanish","japenese","","","English"
"",4405,"survey-likert",7,36438,"0.0-7.0","p164631",2,0,2,"R_2PArtn4Voi6OecI","{""Q0"":1}",1,"lib/images/vulture_600x600.jpg","vulture",2,45,"Male","Bachelor's Degree","Yes","English","spanish","japenese","","","English"
"",4772,"survey-likert",8,41214,"0.0-8.0","p164631",2,0,2,"R_2PArtn4Voi6OecI","{""Q0"":3}",3,"lib/images/toucan_600x600.jpg","toucan",4,45,"Male","Bachelor's Degree","Yes","English","spanish","japenese","","","English"
"",2750,"survey-likert",9,43966,"0.0-9.0","p164631",2,0,2,"R_2PArtn4Voi6OecI","{""Q0"":4}",4,"lib/images/seagull_600x600.jpg","seagull",5,45,"Male","Bachelor's Degree","Yes","English","spanish","japenese","","","English"
"",3460,"survey-likert",10,47430,"0.0-10.0","p164631",2,0,2,"R_2PArtn4Voi6OecI","{""Q0"":2}",2,"lib/images/kookaburra_600x600.jpg","kookaburra",3,45,"Male","Bachelor's Degree","Yes","English","spanish","japenese","","","English"
"",7301,"survey-likert",11,54734,"0.0-11.0","p164631",2,0,2,"R_2PArtn4Voi6OecI","{""Q0"":2}",2,"lib/images/turkey_600x600.jpg","turkey",3,45,"Male","Bachelor's Degree","Yes","English","spanish","japenese","","","English"
"",4213,"survey-likert",12,58950,"0.0-12.0","p164631",2,0,2,"R_2PArtn4Voi6OecI","{""Q0"":3}",3,"lib/images/sparrow_600x600.jpg","sparrow",4,45,"Male","Bachelor's Degree","Yes","English","spanish","japenese","","","English"
"",3093,"survey-likert",13,62046,"0.0-13.0","p164631",2,0,2,"R_2PArtn4Voi6OecI","{""Q0"":2}",2,"lib/images/pelican_600x600.jpg","pelican",3,45,"Male","Bachelor's Degree","Yes","English","spanish","japenese","","","English"
"",2525,"survey-likert",14,64575,"0.0-14.0","p164631",2,0,2,"R_2PArtn4Voi6OecI","{""Q0"":3}",3,"lib/images/falcon_600x600.jpg","falcon",4,45,"Male","Bachelor's Degree","Yes","English","spanish","japenese","","","English"
"",5283,"survey-likert",15,69861,"0.0-15.0","p164631",2,0,2,"R_2PArtn4Voi6OecI","{""Q0"":4}",4,"lib/images/pigeon_600x600.jpg","pigeon",5,45,"Male","Bachelor's Degree","Yes","English","spanish","japenese","","","English"
"",3325,"survey-likert",16,73190,"0.0-16.0","p164631",2,0,2,"R_2PArtn4Voi6OecI","{""Q0"":1}",1,"lib/images/bluejay_600x600.jpg","bluejay",2,45,"Male","Bachelor's Degree","Yes","English","spanish","japenese","","","English"
"",2637,"survey-likert",17,75829,"0.0-17.0","p164631",2,0,2,"R_2PArtn4Voi6OecI","{""Q0"":3}",3,"lib/images/robin_600x600.jpg","robin",4,45,"Male","Bachelor's Degree","Yes","English","spanish","japenese","","","English"
"",3253,"survey-likert",18,79085,"0.0-18.0","p164631",2,0,2,"R_2PArtn4Voi6OecI","{""Q0"":2}",2,"lib/images/kingfisher_600x600.jpg","kingfisher",3,45,"Male","Bachelor's Degree","Yes","English","spanish","japenese","","","English"
"",2829,"survey-likert",19,81917,"0.0-19.0","p164631",2,0,2,"R_2PArtn4Voi6OecI","{""Q0"":3}",3,"lib/images/goldfinch_600x600.jpg","goldfinch",4,45,"Male","Bachelor's Degree","Yes","English","spanish","japenese","","","English"
"",2789,"survey-likert",20,84710,"0.0-20.0","p164631",2,0,2,"R_2PArtn4Voi6OecI","{""Q0"":2}",2,"lib/images/heron_600x600.jpg","heron",3,45,"Male","Bachelor's Degree","Yes","English","spanish","japenese","","","English"
"[{""page_index"":0,""viewing_time"":2958}]",2959,"instructions",21,87670,"0.0-21.0","p164631",2,0,2,"R_2PArtn4Voi6OecI","",NA,"","",NA,45,"Male","Bachelor's Degree","Yes","English","spanish","japenese","","","English"
"",4834,"survey-likert",22,92513,"0.0-22.0","p164631",2,0,2,"R_2PArtn4Voi6OecI","{""Q0"":4}",4,"lib/images/rottweiler_600x600.jpg","rottweiler",5,45,"Male","Bachelor's Degree","Yes","English","spanish","japenese","","","English"
"",2476,"survey-likert",23,94997,"0.0-23.0","p164631",2,0,2,"R_2PArtn4Voi6OecI","{""Q0"":3}",3,"lib/images/foxhound_600x600.jpg","foxhound",4,45,"Male","Bachelor's Degree","Yes","English","spanish","japenese","","","English"
"",4797,"survey-likert",24,99797,"0.0-24.0","p164631",2,0,2,"R_2PArtn4Voi6OecI","{""Q0"":3}",3,"lib/images/yorkshireterrier_600x600.jpg","yorkshireterrier",4,45,"Male","Bachelor's Degree","Yes","English","spanish","japenese","","","English"
"",2501,"survey-likert",25,102301,"0.0-25.0","p164631",2,0,2,"R_2PArtn4Voi6OecI","{""Q0"":3}",3,"lib/images/germanshepherd_600x600.jpg","germanshepherd",4,45,"Male","Bachelor's Degree","Yes","English","spanish","japenese","","","English"
"",2686,"survey-likert",26,104990,"0.0-26.0","p164631",2,0,2,"R_2PArtn4Voi6OecI","{""Q0"":1}",1,"lib/images/afghanhound_600x600.jpg","afghanhound",2,45,"Male","Bachelor's Degree","Yes","English","spanish","japenese","","","English"
"",3235,"survey-likert",27,108229,"0.0-27.0","p164631",2,0,2,"R_2PArtn4Voi6OecI","{""Q0"":4}",4,"lib/images/saintbernard_600x600.jpg","saintbernard",5,45,"Male","Bachelor's Degree","Yes","English","spanish","japenese","","","English"
"",3117,"survey-likert",28,111349,"0.0-28.0","p164631",2,0,2,"R_2PArtn4Voi6OecI","{""Q0"":3}",3,"lib/images/pug_600x600.jpg","pug",4,45,"Male","Bachelor's Degree","Yes","English","spanish","japenese","","","English"
"",2117,"survey-likert",29,113470,"0.0-29.0","p164631",2,0,2,"R_2PArtn4Voi6OecI","{""Q0"":2}",2,"lib/images/beagle_600x600.jpg","beagle",3,45,"Male","Bachelor's Degree","Yes","English","spanish","japenese","","","English"
"",3322,"survey-likert",30,116797,"0.0-30.0","p164631",2,0,2,"R_2PArtn4Voi6OecI","{""Q0"":4}",4,"lib/images/greyhound_600x600.jpg","greyhound",5,45,"Male","Bachelor's Degree","Yes","English","spanish","japenese","","","English"
"",4397,"survey-likert",31,121198,"0.0-31.0","p164631",2,0,2,"R_2PArtn4Voi6OecI","{""Q0"":0}",0,"lib/images/bassethound_600x600.jpg","bassethound",1,45,"Male","Bachelor's Degree","Yes","English","spanish","japenese","","","English"
"",2995,"survey-likert",32,124197,"0.0-32.0","p164631",2,0,2,"R_2PArtn4Voi6OecI","{""Q0"":3}",3,"lib/images/chihuahua_600x600.jpg","chihuahua",4,45,"Male","Bachelor's Degree","Yes","English","spanish","japenese","","","English"
"",3382,"survey-likert",33,127583,"0.0-33.0","p164631",2,0,2,"R_2PArtn4Voi6OecI","{""Q0"":1}",1,"lib/images/husky_600x600.jpg","husky",2,45,"Male","Bachelor's Degree","Yes","English","spanish","japenese","","","English"
"",3018,"survey-likert",34,130605,"0.0-34.0","p164631",2,0,2,"R_2PArtn4Voi6OecI","{""Q0"":0}",0,"lib/images/sheepdog_600x600.jpg","sheepdog",1,45,"Male","Bachelor's Degree","Yes","English","spanish","japenese","","","English"
"",3181,"survey-likert",35,133789,"0.0-35.0","p164631",2,0,2,"R_2PArtn4Voi6OecI","{""Q0"":2}",2,"lib/images/goldenretriever_600x600.jpg","goldenretriever",3,45,"Male","Bachelor's Degree","Yes","English","spanish","japenese","","","English"
"",2549,"survey-likert",36,136341,"0.0-36.0","p164631",2,0,2,"R_2PArtn4Voi6OecI","{""Q0"":3}",3,"lib/images/dalmatian_600x600.jpg","dalmatian",4,45,"Male","Bachelor's Degree","Yes","English","spanish","japenese","","","English"
"",2325,"survey-likert",37,138669,"0.0-37.0","p164631",2,0,2,"R_2PArtn4Voi6OecI","{""Q0"":2}",2,"lib/images/labrador_600x600.jpg","labrador",3,45,"Male","Bachelor's Degree","Yes","English","spanish","japenese","","","English"
"[{""page_index"":0,""viewing_time"":7638}]",7640,"instructions",0,7678,"0.0-0.0","p165905",12,1,2,"R_5j1iD3BdwlXpplL","",NA,"","",NA,38,"Male","Masters Degree","No","","","","","",""
"",3193,"survey-likert",1,10876,"0.0-1.0","p165905",12,1,2,"R_5j1iD3BdwlXpplL","{""Q0"":4}",4,"lib/images/arabianmau_600x600.jpg","arabianmau",5,38,"Male","Masters Degree","No","","","","","",""
"",1998,"survey-likert",2,12885,"0.0-2.0","p165905",12,1,2,"R_5j1iD3BdwlXpplL","{""Q0"":3}",3,"lib/images/britishshorthair_600x600.jpg","britishshorthair",4,38,"Male","Masters Degree","No","","","","","",""
"",2416,"survey-likert",3,15313,"0.0-3.0","p165905",12,1,2,"R_5j1iD3BdwlXpplL","{""Q0"":0}",0,"lib/images/exotic_600x600.jpg","exotic",1,38,"Male","Masters Degree","No","","","","","",""
"",2525,"survey-likert",4,17848,"0.0-4.0","p165905",12,1,2,"R_5j1iD3BdwlXpplL","{""Q0"":4}",4,"lib/images/tabby_600x600.jpg","tabby",5,38,"Male","Masters Degree","No","","","","","",""
"",2567,"survey-likert",5,20427,"0.0-5.0","p165905",12,1,2,"R_5j1iD3BdwlXpplL","{""Q0"":0}",0,"lib/images/egyptianmau_600x600.jpg","egyptianmau",1,38,"Male","Masters Degree","No","","","","","",""
"",2264,"survey-likert",6,22701,"0.0-6.0","p165905",12,1,2,"R_5j1iD3BdwlXpplL","{""Q0"":1}",1,"lib/images/bengal_600x600.jpg","bengal",2,38,"Male","Masters Degree","No","","","","","",""
"",2954,"survey-likert",7,25667,"0.0-7.0","p165905",12,1,2,"R_5j1iD3BdwlXpplL","{""Q0"":3}",3,"lib/images/toyger_600x600.jpg","toyger",4,38,"Male","Masters Degree","No","","","","","",""
"",1698,"survey-likert",8,27376,"0.0-8.0","p165905",12,1,2,"R_5j1iD3BdwlXpplL","{""Q0"":0}",0,"lib/images/siamese_600x600.jpg","siamese",1,38,"Male","Masters Degree","No","","","","","",""
"",2317,"survey-likert",9,29705,"0.0-9.0","p165905",12,1,2,"R_5j1iD3BdwlXpplL","{""Q0"":4}",4,"lib/images/shorthair_calico_600x600.jpg","shorthair_calico",5,38,"Male","Masters Degree","No","","","","","",""
"",2975,"survey-likert",10,32691,"0.0-10.0","p165905",12,1,2,"R_5j1iD3BdwlXpplL","{""Q0"":3}",3,"lib/images/siberian_600x600.jpg","siberian",4,38,"Male","Masters Degree","No","","","","","",""
"",2917,"survey-likert",11,35619,"0.0-11.0","p165905",12,1,2,"R_5j1iD3BdwlXpplL","{""Q0"":2}",2,"lib/images/sandcat_600x600.jpg","sandcat",3,38,"Male","Masters Degree","No","","","","","",""
"",1898,"survey-likert",12,37530,"0.0-12.0","p165905",12,1,2,"R_5j1iD3BdwlXpplL","{""Q0"":0}",0,"lib/images/sphynx_600x600.jpg","sphynx",1,38,"Male","Masters Degree","No","","","","","",""
"",2375,"survey-likert",13,39915,"0.0-13.0","p165905",12,1,2,"R_5j1iD3BdwlXpplL","{""Q0"":3}",3,"lib/images/chartreux_600x600.jpg","chartreux",4,38,"Male","Masters Degree","No","","","","","",""
"",1661,"survey-likert",14,41586,"0.0-14.0","p165905",12,1,2,"R_5j1iD3BdwlXpplL","{""Q0"":0}",0,"lib/images/oriental_600x600.jpg","oriental",1,38,"Male","Masters Degree","No","","","","","",""
"",2530,"survey-likert",15,44128,"0.0-15.0","p165905",12,1,2,"R_5j1iD3BdwlXpplL","{""Q0"":4}",4,"lib/images/americancurl_600x600.jpg","americancurl",5,38,"Male","Masters Degree","No","","","","","",""
"",3213,"survey-likert",16,47352,"0.0-16.0","p165905",12,1,2,"R_5j1iD3BdwlXpplL","{""Q0"":4}",4,"lib/images/burmese_600x600.jpg","burmese",5,38,"Male","Masters Degree","No","","","","","",""
"",2117,"survey-likert",17,49487,"0.0-17.0","p165905",12,1,2,"R_5j1iD3BdwlXpplL","{""Q0"":0}",0,"lib/images/cornishrex_600x600.jpg","cornishrex",1,38,"Male","Masters Degree","No","","","","","",""
"[{""page_index"":0,""viewing_time"":2721}]",2722,"instructions",18,52219,"0.0-18.0","p165905",12,1,2,"R_5j1iD3BdwlXpplL","",NA,"","",NA,38,"Male","Masters Degree","No","","","","","",""
"",3231,"survey-likert",19,55453,"0.0-19.0","p165905",12,1,2,"R_5j1iD3BdwlXpplL","{""Q0"":0}",0,"lib/images/pug_600x600.jpg","pug",1,38,"Male","Masters Degree","No","","","","","",""
"",1874,"survey-likert",20,57338,"0.0-20.0","p165905",12,1,2,"R_5j1iD3BdwlXpplL","{""Q0"":3}",3,"lib/images/saintbernard_600x600.jpg","saintbernard",4,38,"Male","Masters Degree","No","","","","","",""
"",2139,"survey-likert",21,59490,"0.0-21.0","p165905",12,1,2,"R_5j1iD3BdwlXpplL","{""Q0"":0}",0,"lib/images/bassethound_600x600.jpg","bassethound",1,38,"Male","Masters Degree","No","","","","","",""
"",1703,"survey-likert",22,61204,"0.0-22.0","p165905",12,1,2,"R_5j1iD3BdwlXpplL","{""Q0"":0}",0,"lib/images/afghanhound_600x600.jpg","afghanhound",1,38,"Male","Masters Degree","No","","","","","",""
"",1650,"survey-likert",23,62866,"0.0-23.0","p165905",12,1,2,"R_5j1iD3BdwlXpplL","{""Q0"":2}",2,"lib/images/sheepdog_600x600.jpg","sheepdog",3,38,"Male","Masters Degree","No","","","","","",""
"",2263,"survey-likert",24,65139,"0.0-24.0","p165905",12,1,2,"R_5j1iD3BdwlXpplL","{""Q0"":4}",4,"lib/images/foxhound_600x600.jpg","foxhound",5,38,"Male","Masters Degree","No","","","","","",""
"",2557,"survey-likert",25,67709,"0.0-25.0","p165905",12,1,2,"R_5j1iD3BdwlXpplL","{""Q0"":3}",3,"lib/images/yorkshireterrier_600x600.jpg","yorkshireterrier",4,38,"Male","Masters Degree","No","","","","","",""
"",3501,"survey-likert",26,71224,"0.0-26.0","p165905",12,1,2,"R_5j1iD3BdwlXpplL","{""Q0"":3}",3,"lib/images/greyhound_600x600.jpg","greyhound",4,38,"Male","Masters Degree","No","","","","","",""
"",2857,"survey-likert",27,74093,"0.0-27.0","p165905",12,1,2,"R_5j1iD3BdwlXpplL","{""Q0"":4}",4,"lib/images/goldenretriever_600x600.jpg","goldenretriever",5,38,"Male","Masters Degree","No","","","","","",""
"",1702,"survey-likert",28,75810,"0.0-28.0","p165905",12,1,2,"R_5j1iD3BdwlXpplL","{""Q0"":4}",4,"lib/images/labrador_600x600.jpg","labrador",5,38,"Male","Masters Degree","No","","","","","",""
"",1850,"survey-likert",29,77671,"0.0-29.0","p165905",12,1,2,"R_5j1iD3BdwlXpplL","{""Q0"":3}",3,"lib/images/germanshepherd_600x600.jpg","germanshepherd",4,38,"Male","Masters Degree","No","","","","","",""
"",2475,"survey-likert",30,80156,"0.0-30.0","p165905",12,1,2,"R_5j1iD3BdwlXpplL","{""Q0"":2}",2,"lib/images/husky_600x600.jpg","husky",3,38,"Male","Masters Degree","No","","","","","",""
"",2979,"survey-likert",31,83148,"0.0-31.0","p165905",12,1,2,"R_5j1iD3BdwlXpplL","{""Q0"":4}",4,"lib/images/beagle_600x600.jpg","beagle",5,38,"Male","Masters Degree","No","","","","","",""
"",1931,"survey-likert",32,85090,"0.0-32.0","p165905",12,1,2,"R_5j1iD3BdwlXpplL","{""Q0"":3}",3,"lib/images/rottweiler_600x600.jpg","rottweiler",4,38,"Male","Masters Degree","No","","","","","",""
"",2698,"survey-likert",33,87798,"0.0-33.0","p165905",12,1,2,"R_5j1iD3BdwlXpplL","{""Q0"":4}",4,"lib/images/chihuahua_600x600.jpg","chihuahua",5,38,"Male","Masters Degree","No","","","","","",""
"",2763,"survey-likert",34,90573,"0.0-34.0","p165905",12,1,2,"R_5j1iD3BdwlXpplL","{""Q0"":1}",1,"lib/images/dalmatian_600x600.jpg","dalmatian",2,38,"Male","Masters Degree","No","","","","","",""
"[{""page_index"":0,""viewing_time"":5471}]",5472,"instructions",0,5521,"0.0-0.0","p187618",10,1,0,"R_2dRP61cOgRVogHD","",NA,"","",NA,27,"Male","Bachelor's Degree","No","","","","","",""
"",8601,"survey-likert",1,14126,"0.0-1.0","p187618",10,1,0,"R_2dRP61cOgRVogHD","{""Q0"":3}",3,"lib/images/arabianmau_600x600.jpg","arabianmau",4,27,"Male","Bachelor's Degree","No","","","","","",""
"",5409,"survey-likert",2,19557,"0.0-2.0","p187618",10,1,0,"R_2dRP61cOgRVogHD","{""Q0"":1}",1,"lib/images/bengal_600x600.jpg","bengal",2,27,"Male","Bachelor's Degree","No","","","","","",""
"",3658,"survey-likert",3,23221,"0.0-3.0","p187618",10,1,0,"R_2dRP61cOgRVogHD","{""Q0"":3}",3,"lib/images/toyger_600x600.jpg","toyger",4,27,"Male","Bachelor's Degree","No","","","","","",""
"",4976,"survey-likert",4,28205,"0.0-4.0","p187618",10,1,0,"R_2dRP61cOgRVogHD","{""Q0"":2}",2,"lib/images/britishshorthair_600x600.jpg","britishshorthair",3,27,"Male","Bachelor's Degree","No","","","","","",""
"",2450,"survey-likert",5,30662,"0.0-5.0","p187618",10,1,0,"R_2dRP61cOgRVogHD","{""Q0"":4}",4,"lib/images/shorthair_calico_600x600.jpg","shorthair_calico",5,27,"Male","Bachelor's Degree","No","","","","","",""
"",2207,"survey-likert",6,32877,"0.0-6.0","p187618",10,1,0,"R_2dRP61cOgRVogHD","{""Q0"":4}",4,"lib/images/tabby_600x600.jpg","tabby",5,27,"Male","Bachelor's Degree","No","","","","","",""
"",2218,"survey-likert",7,35100,"0.0-7.0","p187618",10,1,0,"R_2dRP61cOgRVogHD","{""Q0"":3}",3,"lib/images/egyptianmau_600x600.jpg","egyptianmau",4,27,"Male","Bachelor's Degree","No","","","","","",""
"",2691,"survey-likert",8,37796,"0.0-8.0","p187618",10,1,0,"R_2dRP61cOgRVogHD","{""Q0"":0}",0,"lib/images/sphynx_600x600.jpg","sphynx",1,27,"Male","Bachelor's Degree","No","","","","","",""
"",3954,"survey-likert",9,41756,"0.0-9.0","p187618",10,1,0,"R_2dRP61cOgRVogHD","{""Q0"":2}",2,"lib/images/oriental_600x600.jpg","oriental",3,27,"Male","Bachelor's Degree","No","","","","","",""
"",3099,"survey-likert",10,44860,"0.0-10.0","p187618",10,1,0,"R_2dRP61cOgRVogHD","{""Q0"":1}",1,"lib/images/burmese_600x600.jpg","burmese",2,27,"Male","Bachelor's Degree","No","","","","","",""
"",3234,"survey-likert",11,48100,"0.0-11.0","p187618",10,1,0,"R_2dRP61cOgRVogHD","{""Q0"":0}",0,"lib/images/siamese_600x600.jpg","siamese",1,27,"Male","Bachelor's Degree","No","","","","","",""
"",2291,"survey-likert",12,50396,"0.0-12.0","p187618",10,1,0,"R_2dRP61cOgRVogHD","{""Q0"":0}",0,"lib/images/cornishrex_600x600.jpg","cornishrex",1,27,"Male","Bachelor's Degree","No","","","","","",""
"",3034,"survey-likert",13,53436,"0.0-13.0","p187618",10,1,0,"R_2dRP61cOgRVogHD","{""Q0"":1}",1,"lib/images/siberian_600x600.jpg","siberian",2,27,"Male","Bachelor's Degree","No","","","","","",""
"",3946,"survey-likert",14,57388,"0.0-14.0","p187618",10,1,0,"R_2dRP61cOgRVogHD","{""Q0"":3}",3,"lib/images/exotic_600x600.jpg","exotic",4,27,"Male","Bachelor's Degree","No","","","","","",""
"",2954,"survey-likert",15,60348,"0.0-15.0","p187618",10,1,0,"R_2dRP61cOgRVogHD","{""Q0"":2}",2,"lib/images/chartreux_600x600.jpg","chartreux",3,27,"Male","Bachelor's Degree","No","","","","","",""
"",2682,"survey-likert",16,63036,"0.0-16.0","p187618",10,1,0,"R_2dRP61cOgRVogHD","{""Q0"":4}",4,"lib/images/americancurl_600x600.jpg","americancurl",5,27,"Male","Bachelor's Degree","No","","","","","",""
"",2595,"survey-likert",17,65635,"0.0-17.0","p187618",10,1,0,"R_2dRP61cOgRVogHD","{""Q0"":0}",0,"lib/images/sandcat_600x600.jpg","sandcat",1,27,"Male","Bachelor's Degree","No","","","","","",""
"[{""page_index"":0,""viewing_time"":55529}]",55530,"instructions",18,121170,"0.0-18.0","p187618",10,1,0,"R_2dRP61cOgRVogHD","",NA,"","",NA,27,"Male","Bachelor's Degree","No","","","","","",""
"",7046,"survey-likert",19,128218,"0.0-19.0","p187618",10,1,0,"R_2dRP61cOgRVogHD","{""Q0"":1}",1,"lib/images/sparrow_600x600.jpg","sparrow",2,27,"Male","Bachelor's Degree","No","","","","","",""
"",3459,"survey-likert",20,131683,"0.0-20.0","p187618",10,1,0,"R_2dRP61cOgRVogHD","{""Q0"":4}",4,"lib/images/falcon_600x600.jpg","falcon",5,27,"Male","Bachelor's Degree","No","","","","","",""
"",2873,"survey-likert",21,134563,"0.0-21.0","p187618",10,1,0,"R_2dRP61cOgRVogHD","{""Q0"":0}",0,"lib/images/goldfinch_600x600.jpg","goldfinch",1,27,"Male","Bachelor's Degree","No","","","","","",""
"",2269,"survey-likert",22,136843,"0.0-22.0","p187618",10,1,0,"R_2dRP61cOgRVogHD","{""Q0"":4}",4,"lib/images/toucan_600x600.jpg","toucan",5,27,"Male","Bachelor's Degree","No","","","","","",""
"",2080,"survey-likert",23,138930,"0.0-23.0","p187618",10,1,0,"R_2dRP61cOgRVogHD","{""Q0"":4}",4,"lib/images/heron_600x600.jpg","heron",5,27,"Male","Bachelor's Degree","No","","","","","",""
"",2122,"survey-likert",24,141058,"0.0-24.0","p187618",10,1,0,"R_2dRP61cOgRVogHD","{""Q0"":4}",4,"lib/images/parrot_600x600.jpg","parrot",5,27,"Male","Bachelor's Degree","No","","","","","",""
"",1987,"survey-likert",25,143050,"0.0-25.0","p187618",10,1,0,"R_2dRP61cOgRVogHD","{""Q0"":4}",4,"lib/images/bluejay_600x600.jpg","bluejay",5,27,"Male","Bachelor's Degree","No","","","","","",""
"",1955,"survey-likert",26,145010,"0.0-26.0","p187618",10,1,0,"R_2dRP61cOgRVogHD","{""Q0"":4}",4,"lib/images/peacock_600x600.jpg","peacock",5,27,"Male","Bachelor's Degree","No","","","","","",""
"",1778,"survey-likert",27,146794,"0.0-27.0","p187618",10,1,0,"R_2dRP61cOgRVogHD","{""Q0"":4}",4,"lib/images/puffin_600x600.jpg","puffin",5,27,"Male","Bachelor's Degree","No","","","","","",""
"",1833,"survey-likert",28,148633,"0.0-28.0","p187618",10,1,0,"R_2dRP61cOgRVogHD","{""Q0"":4}",4,"lib/images/pigeon_600x600.jpg","pigeon",5,27,"Male","Bachelor's Degree","No","","","","","",""
"",4578,"survey-likert",29,153217,"0.0-29.0","p187618",10,1,0,"R_2dRP61cOgRVogHD","{""Q0"":4}",4,"lib/images/pelican_600x600.jpg","pelican",5,27,"Male","Bachelor's Degree","No","","","","","",""
"",1851,"survey-likert",30,155073,"0.0-30.0","p187618",10,1,0,"R_2dRP61cOgRVogHD","{""Q0"":4}",4,"lib/images/cardinal_600x600.jpg","cardinal",5,27,"Male","Bachelor's Degree","No","","","","","",""
"",6027,"survey-likert",31,161105,"0.0-31.0","p187618",10,1,0,"R_2dRP61cOgRVogHD","{""Q0"":3}",3,"lib/images/kingfisher_600x600.jpg","kingfisher",4,27,"Male","Bachelor's Degree","No","","","","","",""
"",2548,"survey-likert",32,163659,"0.0-32.0","p187618",10,1,0,"R_2dRP61cOgRVogHD","{""Q0"":0}",0,"lib/images/kookaburra_600x600.jpg","kookaburra",1,27,"Male","Bachelor's Degree","No","","","","","",""
"",4721,"survey-likert",33,168385,"0.0-33.0","p187618",10,1,0,"R_2dRP61cOgRVogHD","{""Q0"":1}",1,"lib/images/cedarwaxwing_600x600.jpg","cedarwaxwing",2,27,"Male","Bachelor's Degree","No","","","","","",""
"",2854,"survey-likert",34,171250,"0.0-34.0","p187618",10,1,0,"R_2dRP61cOgRVogHD","{""Q0"":4}",4,"lib/images/turkey_600x600.jpg","turkey",5,27,"Male","Bachelor's Degree","No","","","","","",""
"",5328,"survey-likert",35,176585,"0.0-35.0","p187618",10,1,0,"R_2dRP61cOgRVogHD","{""Q0"":0}",0,"lib/images/robin_600x600.jpg","robin",1,27,"Male","Bachelor's Degree","No","","","","","",""
"",2514,"survey-likert",36,179104,"0.0-36.0","p187618",10,1,0,"R_2dRP61cOgRVogHD","{""Q0"":4}",4,"lib/images/vulture_600x600.jpg","vulture",5,27,"Male","Bachelor's Degree","No","","","","","",""
"",1875,"survey-likert",37,180985,"0.0-37.0","p187618",10,1,0,"R_2dRP61cOgRVogHD","{""Q0"":4}",4,"lib/images/owl_600x600.jpg","owl",5,27,"Male","Bachelor's Degree","No","","","","","",""
"",2019,"survey-likert",38,183009,"0.0-38.0","p187618",10,1,0,"R_2dRP61cOgRVogHD","{""Q0"":4}",4,"lib/images/seagull_600x600.jpg","seagull",5,27,"Male","Bachelor's Degree","No","","","","","",""
"[{""page_index"":0,""viewing_time"":13024}]",13024,"instructions",0,13035,"0.0-0.0","p192679",23,2,3,"R_1IdcOBfdyunA2da","",NA,"","",NA,29,"Male","Bachelor's Degree","No","","","","","",""
"",17936,"survey-likert",1,30977,"0.0-1.0","p192679",23,2,3,"R_1IdcOBfdyunA2da","{""Q0"":1}",1,"lib/images/chihuahua_600x600.jpg","chihuahua",2,29,"Male","Bachelor's Degree","No","","","","","",""
"",2066,"survey-likert",2,33045,"0.0-2.0","p192679",23,2,3,"R_1IdcOBfdyunA2da","{""Q0"":0}",0,"lib/images/sheepdog_600x600.jpg","sheepdog",1,29,"Male","Bachelor's Degree","No","","","","","",""
"",3743,"survey-likert",3,36789,"0.0-3.0","p192679",23,2,3,"R_1IdcOBfdyunA2da","{""Q0"":4}",4,"lib/images/beagle_600x600.jpg","beagle",5,29,"Male","Bachelor's Degree","No","","","","","",""
"",2150,"survey-likert",4,38940,"0.0-4.0","p192679",23,2,3,"R_1IdcOBfdyunA2da","{""Q0"":3}",3,"lib/images/germanshepherd_600x600.jpg","germanshepherd",4,29,"Male","Bachelor's Degree","No","","","","","",""
"",2427,"survey-likert",5,41368,"0.0-5.0","p192679",23,2,3,"R_1IdcOBfdyunA2da","{""Q0"":1}",1,"lib/images/pug_600x600.jpg","pug",2,29,"Male","Bachelor's Degree","No","","","","","",""
"",3939,"survey-likert",6,45307,"0.0-6.0","p192679",23,2,3,"R_1IdcOBfdyunA2da","{""Q0"":3}",3,"lib/images/husky_600x600.jpg","husky",4,29,"Male","Bachelor's Degree","No","","","","","",""
"",8033,"survey-likert",7,53341,"0.0-7.0","p192679",23,2,3,"R_1IdcOBfdyunA2da","{""Q0"":1}",1,"lib/images/afghanhound_600x600.jpg","afghanhound",2,29,"Male","Bachelor's Degree","No","","","","","",""
"",4166,"survey-likert",8,57508,"0.0-8.0","p192679",23,2,3,"R_1IdcOBfdyunA2da","{""Q0"":3}",3,"lib/images/dalmatian_600x600.jpg","dalmatian",4,29,"Male","Bachelor's Degree","No","","","","","",""
"",2098,"survey-likert",9,59607,"0.0-9.0","p192679",23,2,3,"R_1IdcOBfdyunA2da","{""Q0"":2}",2,"lib/images/bassethound_600x600.jpg","bassethound",3,29,"Male","Bachelor's Degree","No","","","","","",""
"",2898,"survey-likert",10,62507,"0.0-10.0","p192679",23,2,3,"R_1IdcOBfdyunA2da","{""Q0"":4}",4,"lib/images/foxhound_600x600.jpg","foxhound",5,29,"Male","Bachelor's Degree","No","","","","","",""
"",3466,"survey-likert",11,65973,"0.0-11.0","p192679",23,2,3,"R_1IdcOBfdyunA2da","{""Q0"":2}",2,"lib/images/greyhound_600x600.jpg","greyhound",3,29,"Male","Bachelor's Degree","No","","","","","",""
"",2684,"survey-likert",12,68658,"0.0-12.0","p192679",23,2,3,"R_1IdcOBfdyunA2da","{""Q0"":4}",4,"lib/images/labrador_600x600.jpg","labrador",5,29,"Male","Bachelor's Degree","No","","","","","",""
"",2455,"survey-likert",13,71115,"0.0-13.0","p192679",23,2,3,"R_1IdcOBfdyunA2da","{""Q0"":3}",3,"lib/images/saintbernard_600x600.jpg","saintbernard",4,29,"Male","Bachelor's Degree","No","","","","","",""
"",1921,"survey-likert",14,73036,"0.0-14.0","p192679",23,2,3,"R_1IdcOBfdyunA2da","{""Q0"":4}",4,"lib/images/goldenretriever_600x600.jpg","goldenretriever",5,29,"Male","Bachelor's Degree","No","","","","","",""
"",2762,"survey-likert",15,75799,"0.0-15.0","p192679",23,2,3,"R_1IdcOBfdyunA2da","{""Q0"":1}",1,"lib/images/yorkshireterrier_600x600.jpg","yorkshireterrier",2,29,"Male","Bachelor's Degree","No","","","","","",""
"",3292,"survey-likert",16,79092,"0.0-16.0","p192679",23,2,3,"R_1IdcOBfdyunA2da","{""Q0"":3}",3,"lib/images/rottweiler_600x600.jpg","rottweiler",4,29,"Male","Bachelor's Degree","No","","","","","",""
"[{""page_index"":0,""viewing_time"":2837}]",2837,"instructions",17,81930,"0.0-17.0","p192679",23,2,3,"R_1IdcOBfdyunA2da","",NA,"","",NA,29,"Male","Bachelor's Degree","No","","","","","",""
"",5790,"survey-likert",18,87721,"0.0-18.0","p192679",23,2,3,"R_1IdcOBfdyunA2da","{""Q0"":2}",2,"lib/images/sergeantmajor_600x600.jpg","sergeantmajor",3,29,"Male","Bachelor's Degree","No","","","","","",""
"",4045,"survey-likert",19,91767,"0.0-19.0","p192679",23,2,3,"R_1IdcOBfdyunA2da","{""Q0"":0}",0,"lib/images/bluetang_600x600.jpg","bluetang",1,29,"Male","Bachelor's Degree","No","","","","","",""
"",1658,"survey-likert",20,93426,"0.0-20.0","p192679",23,2,3,"R_1IdcOBfdyunA2da","{""Q0"":0}",0,"lib/images/pufferfish_600x600.jpg","pufferfish",1,29,"Male","Bachelor's Degree","No","","","","","",""
"",2746,"survey-likert",21,96173,"0.0-21.0","p192679",23,2,3,"R_1IdcOBfdyunA2da","{""Q0"":4}",4,"lib/images/goldfish_600x600.jpg","goldfish",5,29,"Male","Bachelor's Degree","No","","","","","",""
"",3700,"survey-likert",22,99874,"0.0-22.0","p192679",23,2,3,"R_1IdcOBfdyunA2da","{""Q0"":1}",1,"lib/images/lionfish_600x600.jpg","lionfish",2,29,"Male","Bachelor's Degree","No","","","","","",""
"",1741,"survey-likert",23,101616,"0.0-23.0","p192679",23,2,3,"R_1IdcOBfdyunA2da","{""Q0"":3}",3,"lib/images/bluegill_600x600.jpg","bluegill",4,29,"Male","Bachelor's Degree","No","","","","","",""
"",1913,"survey-likert",24,103530,"0.0-24.0","p192679",23,2,3,"R_1IdcOBfdyunA2da","{""Q0"":4}",4,"lib/images/salmon_600x600.jpg","salmon",5,29,"Male","Bachelor's Degree","No","","","","","",""
"",3495,"survey-likert",25,107026,"0.0-25.0","p192679",23,2,3,"R_1IdcOBfdyunA2da","{""Q0"":2}",2,"lib/images/sturgeon_600x600.jpg","sturgeon",3,29,"Male","Bachelor's Degree","No","","","","","",""
"",2630,"survey-likert",26,109657,"0.0-26.0","p192679",23,2,3,"R_1IdcOBfdyunA2da","{""Q0"":1}",1,"lib/images/betafish_600x600.jpg","betafish",2,29,"Male","Bachelor's Degree","No","","","","","",""
"",2135,"survey-likert",27,111793,"0.0-27.0","p192679",23,2,3,"R_1IdcOBfdyunA2da","{""Q0"":4}",4,"lib/images/koi_600x600.jpg","koi",5,29,"Male","Bachelor's Degree","No","","","","","",""
"",4273,"survey-likert",28,116067,"0.0-28.0","p192679",23,2,3,"R_1IdcOBfdyunA2da","{""Q0"":0}",0,"lib/images/stingray_600x600.jpg","stingray",1,29,"Male","Bachelor's Degree","No","","","","","",""
"",4038,"survey-likert",29,120106,"0.0-29.0","p192679",23,2,3,"R_1IdcOBfdyunA2da","{""Q0"":0}",0,"lib/images/cuttlefish_600x600.jpg","cuttlefish",1,29,"Male","Bachelor's Degree","No","","","","","",""
"",2487,"survey-likert",30,122594,"0.0-30.0","p192679",23,2,3,"R_1IdcOBfdyunA2da","{""Q0"":4}",4,"lib/images/bass_600x600.jpg","bass",5,29,"Male","Bachelor's Degree","No","","","","","",""
"",13003,"survey-likert",31,135598,"0.0-31.0","p192679",23,2,3,"R_1IdcOBfdyunA2da","{""Q0"":1}",1,"lib/images/angelfish_600x600.jpg","angelfish",2,29,"Male","Bachelor's Degree","No","","","","","",""
"",1886,"survey-likert",32,137485,"0.0-32.0","p192679",23,2,3,"R_1IdcOBfdyunA2da","{""Q0"":0}",0,"lib/images/seahorse_600x600.jpg","seahorse",1,29,"Male","Bachelor's Degree","No","","","","","",""
"",2797,"survey-likert",33,140283,"0.0-33.0","p192679",23,2,3,"R_1IdcOBfdyunA2da","{""Q0"":3}",3,"lib/images/clownfish_600x600.jpg","clownfish",4,29,"Male","Bachelor's Degree","No","","","","","",""
"",5533,"survey-likert",34,145817,"0.0-34.0","p192679",23,2,3,"R_1IdcOBfdyunA2da","{""Q0"":3}",3,"lib/images/catfish_600x600.jpg","catfish",4,29,"Male","Bachelor's Degree","No","","","","","",""
"[{""page_index"":0,""viewing_time"":16942}]",16943,"instructions",0,16972,"0.0-0.0","p195947",20,2,0,"R_29b5yL6y25y4YjI","",NA,"","",NA,31,"Male","Associate's Degree/technical school","No","","","","","",""
"",7630,"survey-likert",1,24605,"0.0-1.0","p195947",20,2,0,"R_29b5yL6y25y4YjI","{""Q0"":3}",3,"lib/images/husky_600x600.jpg","husky",4,31,"Male","Associate's Degree/technical school","No","","","","","",""
"",4030,"survey-likert",2,28636,"0.0-2.0","p195947",20,2,0,"R_29b5yL6y25y4YjI","{""Q0"":0}",0,"lib/images/afghanhound_600x600.jpg","afghanhound",1,31,"Male","Associate's Degree/technical school","No","","","","","",""
"",2585,"survey-likert",3,31223,"0.0-3.0","p195947",20,2,0,"R_29b5yL6y25y4YjI","{""Q0"":3}",3,"lib/images/rottweiler_600x600.jpg","rottweiler",4,31,"Male","Associate's Degree/technical school","No","","","","","",""
"",4635,"survey-likert",4,35859,"0.0-4.0","p195947",20,2,0,"R_29b5yL6y25y4YjI","{""Q0"":0}",0,"lib/images/bassethound_600x600.jpg","bassethound",1,31,"Male","Associate's Degree/technical school","No","","","","","",""
"",3592,"survey-likert",5,39454,"0.0-5.0","p195947",20,2,0,"R_29b5yL6y25y4YjI","{""Q0"":0}",0,"lib/images/greyhound_600x600.jpg","greyhound",1,31,"Male","Associate's Degree/technical school","No","","","","","",""
"",4013,"survey-likert",6,43469,"0.0-6.0","p195947",20,2,0,"R_29b5yL6y25y4YjI","{""Q0"":2}",2,"lib/images/labrador_600x600.jpg","labrador",3,31,"Male","Associate's Degree/technical school","No","","","","","",""
"",2893,"survey-likert",7,46363,"0.0-7.0","p195947",20,2,0,"R_29b5yL6y25y4YjI","{""Q0"":2}",2,"lib/images/goldenretriever_600x600.jpg","goldenretriever",3,31,"Male","Associate's Degree/technical school","No","","","","","",""
"",2849,"survey-likert",8,49215,"0.0-8.0","p195947",20,2,0,"R_29b5yL6y25y4YjI","{""Q0"":3}",3,"lib/images/beagle_600x600.jpg","beagle",4,31,"Male","Associate's Degree/technical school","No","","","","","",""
"",3194,"survey-likert",9,52411,"0.0-9.0","p195947",20,2,0,"R_29b5yL6y25y4YjI","{""Q0"":3}",3,"lib/images/yorkshireterrier_600x600.jpg","yorkshireterrier",4,31,"Male","Associate's Degree/technical school","No","","","","","",""
"",4269,"survey-likert",10,56683,"0.0-10.0","p195947",20,2,0,"R_29b5yL6y25y4YjI","{""Q0"":3}",3,"lib/images/germanshepherd_600x600.jpg","germanshepherd",4,31,"Male","Associate's Degree/technical school","No","","","","","",""
"",2890,"survey-likert",11,59575,"0.0-11.0","p195947",20,2,0,"R_29b5yL6y25y4YjI","{""Q0"":0}",0,"lib/images/sheepdog_600x600.jpg","sheepdog",1,31,"Male","Associate's Degree/technical school","No","","","","","",""
"",3358,"survey-likert",12,62935,"0.0-12.0","p195947",20,2,0,"R_29b5yL6y25y4YjI","{""Q0"":2}",2,"lib/images/foxhound_600x600.jpg","foxhound",3,31,"Male","Associate's Degree/technical school","No","","","","","",""
"",2372,"survey-likert",13,65309,"0.0-13.0","p195947",20,2,0,"R_29b5yL6y25y4YjI","{""Q0"":1}",1,"lib/images/chihuahua_600x600.jpg","chihuahua",2,31,"Male","Associate's Degree/technical school","No","","","","","",""
"",3039,"survey-likert",14,68349,"0.0-14.0","p195947",20,2,0,"R_29b5yL6y25y4YjI","{""Q0"":3}",3,"lib/images/saintbernard_600x600.jpg","saintbernard",4,31,"Male","Associate's Degree/technical school","No","","","","","",""
"",3360,"survey-likert",15,71711,"0.0-15.0","p195947",20,2,0,"R_29b5yL6y25y4YjI","{""Q0"":4}",4,"lib/images/pug_600x600.jpg","pug",5,31,"Male","Associate's Degree/technical school","No","","","","","",""
"",1765,"survey-likert",16,73477,"0.0-16.0","p195947",20,2,0,"R_29b5yL6y25y4YjI","{""Q0"":2}",2,"lib/images/dalmatian_600x600.jpg","dalmatian",3,31,"Male","Associate's Degree/technical school","No","","","","","",""
"[{""page_index"":0,""viewing_time"":3555}]",3555,"instructions",17,77033,"0.0-17.0","p195947",20,2,0,"R_29b5yL6y25y4YjI","",NA,"","",NA,31,"Male","Associate's Degree/technical school","No","","","","","",""
"",5114,"survey-likert",18,82150,"0.0-18.0","p195947",20,2,0,"R_29b5yL6y25y4YjI","{""Q0"":2}",2,"lib/images/turkey_600x600.jpg","turkey",3,31,"Male","Associate's Degree/technical school","No","","","","","",""
"",1981,"survey-likert",19,84134,"0.0-19.0","p195947",20,2,0,"R_29b5yL6y25y4YjI","{""Q0"":1}",1,"lib/images/parrot_600x600.jpg","parrot",2,31,"Male","Associate's Degree/technical school","No","","","","","",""
"",2183,"survey-likert",20,86318,"0.0-20.0","p195947",20,2,0,"R_29b5yL6y25y4YjI","{""Q0"":2}",2,"lib/images/cedarwaxwing_600x600.jpg","cedarwaxwing",3,31,"Male","Associate's Degree/technical school","No","","","","","",""
"",2658,"survey-likert",21,88979,"0.0-21.0","p195947",20,2,0,"R_29b5yL6y25y4YjI","{""Q0"":0}",0,"lib/images/kookaburra_600x600.jpg","kookaburra",1,31,"Male","Associate's Degree/technical school","No","","","","","",""
"",2370,"survey-likert",22,91350,"0.0-22.0","p195947",20,2,0,"R_29b5yL6y25y4YjI","{""Q0"":4}",4,"lib/images/pigeon_600x600.jpg","pigeon",5,31,"Male","Associate's Degree/technical school","No","","","","","",""
"",3398,"survey-likert",23,94750,"0.0-23.0","p195947",20,2,0,"R_29b5yL6y25y4YjI","{""Q0"":1}",1,"lib/images/heron_600x600.jpg","heron",2,31,"Male","Associate's Degree/technical school","No","","","","","",""
"",5150,"survey-likert",24,99903,"0.0-24.0","p195947",20,2,0,"R_29b5yL6y25y4YjI","{""Q0"":4}",4,"lib/images/seagull_600x600.jpg","seagull",5,31,"Male","Associate's Degree/technical school","No","","","","","",""
"",2424,"survey-likert",25,102328,"0.0-25.0","p195947",20,2,0,"R_29b5yL6y25y4YjI","{""Q0"":1}",1,"lib/images/peacock_600x600.jpg","peacock",2,31,"Male","Associate's Degree/technical school","No","","","","","",""
"",1576,"survey-likert",26,103906,"0.0-26.0","p195947",20,2,0,"R_29b5yL6y25y4YjI","{""Q0"":2}",2,"lib/images/robin_600x600.jpg","robin",3,31,"Male","Associate's Degree/technical school","No","","","","","",""
"",2720,"survey-likert",27,106629,"0.0-27.0","p195947",20,2,0,"R_29b5yL6y25y4YjI","{""Q0"":1}",1,"lib/images/goldfinch_600x600.jpg","goldfinch",2,31,"Male","Associate's Degree/technical school","No","","","","","",""
"",1867,"survey-likert",28,108497,"0.0-28.0","p195947",20,2,0,"R_29b5yL6y25y4YjI","{""Q0"":2}",2,"lib/images/sparrow_600x600.jpg","sparrow",3,31,"Male","Associate's Degree/technical school","No","","","","","",""
"",3460,"survey-likert",29,111958,"0.0-29.0","p195947",20,2,0,"R_29b5yL6y25y4YjI","{""Q0"":1}",1,"lib/images/toucan_600x600.jpg","toucan",2,31,"Male","Associate's Degree/technical school","No","","","","","",""
"",2292,"survey-likert",30,114252,"0.0-30.0","p195947",20,2,0,"R_29b5yL6y25y4YjI","{""Q0"":2}",2,"lib/images/kingfisher_600x600.jpg","kingfisher",3,31,"Male","Associate's Degree/technical school","No","","","","","",""
"",2412,"survey-likert",31,116665,"0.0-31.0","p195947",20,2,0,"R_29b5yL6y25y4YjI","{""Q0"":0}",0,"lib/images/bluejay_600x600.jpg","bluejay",1,31,"Male","Associate's Degree/technical school","No","","","","","",""
"",2448,"survey-likert",32,119115,"0.0-32.0","p195947",20,2,0,"R_29b5yL6y25y4YjI","{""Q0"":1}",1,"lib/images/cardinal_600x600.jpg","cardinal",2,31,"Male","Associate's Degree/technical school","No","","","","","",""
"",2991,"survey-likert",33,122108,"0.0-33.0","p195947",20,2,0,"R_29b5yL6y25y4YjI","{""Q0"":1}",1,"lib/images/puffin_600x600.jpg","puffin",2,31,"Male","Associate's Degree/technical school","No","","","","","",""
"",2106,"survey-likert",34,124216,"0.0-34.0","p195947",20,2,0,"R_29b5yL6y25y4YjI","{""Q0"":2}",2,"lib/images/owl_600x600.jpg","owl",3,31,"Male","Associate's Degree/technical school","No","","","","","",""
"",2801,"survey-likert",35,127018,"0.0-35.0","p195947",20,2,0,"R_29b5yL6y25y4YjI","{""Q0"":3}",3,"lib/images/pelican_600x600.jpg","pelican",4,31,"Male","Associate's Degree/technical school","No","","","","","",""
"",3108,"survey-likert",36,130129,"0.0-36.0","p195947",20,2,0,"R_29b5yL6y25y4YjI","{""Q0"":2}",2,"lib/images/vulture_600x600.jpg","vulture",3,31,"Male","Associate's Degree/technical school","No","","","","","",""
"",3335,"survey-likert",37,133467,"0.0-37.0","p195947",20,2,0,"R_29b5yL6y25y4YjI","{""Q0"":2}",2,"lib/images/falcon_600x600.jpg","falcon",3,31,"Male","Associate's Degree/technical school","No","","","","","",""
"[{""page_index"":0,""viewing_time"":24051}]",24052,"instructions",0,24071,"0.0-0.0","p196159",31,3,1,"R_1rIn8q0gSgucKQk","",NA,"","",NA,35,"Male","Some College","Yes","english","spanish","french","","","english"
"",4451,"survey-likert",1,28525,"0.0-1.0","p196159",31,3,1,"R_1rIn8q0gSgucKQk","{""Q0"":3}",3,"lib/images/angelfish_600x600.jpg","angelfish",4,35,"Male","Some College","Yes","english","spanish","french","","","english"
"",3776,"survey-likert",2,32304,"0.0-2.0","p196159",31,3,1,"R_1rIn8q0gSgucKQk","{""Q0"":1}",1,"lib/images/bluetang_600x600.jpg","bluetang",2,35,"Male","Some College","Yes","english","spanish","french","","","english"
"",1422,"survey-likert",3,33729,"0.0-3.0","p196159",31,3,1,"R_1rIn8q0gSgucKQk","{""Q0"":4}",4,"lib/images/goldfish_600x600.jpg","goldfish",5,35,"Male","Some College","Yes","english","spanish","french","","","english"
"",2725,"survey-likert",4,36456,"0.0-4.0","p196159",31,3,1,"R_1rIn8q0gSgucKQk","{""Q0"":0}",0,"lib/images/sturgeon_600x600.jpg","sturgeon",1,35,"Male","Some College","Yes","english","spanish","french","","","english"
"",1820,"survey-likert",5,38277,"0.0-5.0","p196159",31,3,1,"R_1rIn8q0gSgucKQk","{""Q0"":3}",3,"lib/images/koi_600x600.jpg","koi",4,35,"Male","Some College","Yes","english","spanish","french","","","english"
"",2680,"survey-likert",6,40960,"0.0-6.0","p196159",31,3,1,"R_1rIn8q0gSgucKQk","{""Q0"":2}",2,"lib/images/salmon_600x600.jpg","salmon",3,35,"Male","Some College","Yes","english","spanish","french","","","english"
"",2055,"survey-likert",7,43016,"0.0-7.0","p196159",31,3,1,"R_1rIn8q0gSgucKQk","{""Q0"":3}",3,"lib/images/bass_600x600.jpg","bass",4,35,"Male","Some College","Yes","english","spanish","french","","","english"
"",1585,"survey-likert",8,44603,"0.0-8.0","p196159",31,3,1,"R_1rIn8q0gSgucKQk","{""Q0"":4}",4,"lib/images/catfish_600x600.jpg","catfish",5,35,"Male","Some College","Yes","english","spanish","french","","","english"
"",1380,"survey-likert",9,45986,"0.0-9.0","p196159",31,3,1,"R_1rIn8q0gSgucKQk","{""Q0"":0}",0,"lib/images/pufferfish_600x600.jpg","pufferfish",1,35,"Male","Some College","Yes","english","spanish","french","","","english"
"",1850,"survey-likert",10,47837,"0.0-10.0","p196159",31,3,1,"R_1rIn8q0gSgucKQk","{""Q0"":3}",3,"lib/images/sergeantmajor_600x600.jpg","sergeantmajor",4,35,"Male","Some College","Yes","english","spanish","french","","","english"
"",3368,"survey-likert",11,51207,"0.0-11.0","p196159",31,3,1,"R_1rIn8q0gSgucKQk","{""Q0"":1}",1,"lib/images/stingray_600x600.jpg","stingray",2,35,"Male","Some College","Yes","english","spanish","french","","","english"
"",2491,"survey-likert",12,53699,"0.0-12.0","p196159",31,3,1,"R_1rIn8q0gSgucKQk","{""Q0"":4}",4,"lib/images/clownfish_600x600.jpg","clownfish",5,35,"Male","Some College","Yes","english","spanish","french","","","english"
"",1825,"survey-likert",13,55525,"0.0-13.0","p196159",31,3,1,"R_1rIn8q0gSgucKQk","{""Q0"":4}",4,"lib/images/bluegill_600x600.jpg","bluegill",5,35,"Male","Some College","Yes","english","spanish","french","","","english"
"",1631,"survey-likert",14,57158,"0.0-14.0","p196159",31,3,1,"R_1rIn8q0gSgucKQk","{""Q0"":4}",4,"lib/images/betafish_600x600.jpg","betafish",5,35,"Male","Some College","Yes","english","spanish","french","","","english"
"",1680,"survey-likert",15,58840,"0.0-15.0","p196159",31,3,1,"R_1rIn8q0gSgucKQk","{""Q0"":0}",0,"lib/images/cuttlefish_600x600.jpg","cuttlefish",1,35,"Male","Some College","Yes","english","spanish","french","","","english"
"",2008,"survey-likert",16,60851,"0.0-16.0","p196159",31,3,1,"R_1rIn8q0gSgucKQk","{""Q0"":1}",1,"lib/images/seahorse_600x600.jpg","seahorse",2,35,"Male","Some College","Yes","english","spanish","french","","","english"
"",2751,"survey-likert",17,63605,"0.0-17.0","p196159",31,3,1,"R_1rIn8q0gSgucKQk","{""Q0"":3}",3,"lib/images/lionfish_600x600.jpg","lionfish",4,35,"Male","Some College","Yes","english","spanish","french","","","english"
"[{""page_index"":0,""viewing_time"":2093}]",2093,"instructions",18,65699,"0.0-18.0","p196159",31,3,1,"R_1rIn8q0gSgucKQk","",NA,"","",NA,35,"Male","Some College","Yes","english","spanish","french","","","english"
"",2634,"survey-likert",19,68335,"0.0-19.0","p196159",31,3,1,"R_1rIn8q0gSgucKQk","{""Q0"":4}",4,"lib/images/chartreux_600x600.jpg","chartreux",5,35,"Male","Some College","Yes","english","spanish","french","","","english"
"",1653,"survey-likert",20,69991,"0.0-20.0","p196159",31,3,1,"R_1rIn8q0gSgucKQk","{""Q0"":3}",3,"lib/images/sandcat_600x600.jpg","sandcat",4,35,"Male","Some College","Yes","english","spanish","french","","","english"
"",1245,"survey-likert",21,71237,"0.0-21.0","p196159",31,3,1,"R_1rIn8q0gSgucKQk","{""Q0"":4}",4,"lib/images/tabby_600x600.jpg","tabby",5,35,"Male","Some College","Yes","english","spanish","french","","","english"
"",1643,"survey-likert",22,72883,"0.0-22.0","p196159",31,3,1,"R_1rIn8q0gSgucKQk","{""Q0"":1}",1,"lib/images/cornishrex_600x600.jpg","cornishrex",2,35,"Male","Some College","Yes","english","spanish","french","","","english"
"",2535,"survey-likert",23,75422,"0.0-23.0","p196159",31,3,1,"R_1rIn8q0gSgucKQk","{""Q0"":2}",2,"lib/images/toyger_600x600.jpg","toyger",3,35,"Male","Some College","Yes","english","spanish","french","","","english"
"",1265,"survey-likert",24,76688,"0.0-24.0","p196159",31,3,1,"R_1rIn8q0gSgucKQk","{""Q0"":4}",4,"lib/images/britishshorthair_600x600.jpg","britishshorthair",5,35,"Male","Some College","Yes","english","spanish","french","","","english"
"",1181,"survey-likert",25,77870,"0.0-25.0","p196159",31,3,1,"R_1rIn8q0gSgucKQk","{""Q0"":4}",4,"lib/images/arabianmau_600x600.jpg","arabianmau",5,35,"Male","Some College","Yes","english","spanish","french","","","english"
"",1247,"survey-likert",26,79119,"0.0-26.0","p196159",31,3,1,"R_1rIn8q0gSgucKQk","{""Q0"":4}",4,"lib/images/burmese_600x600.jpg","burmese",5,35,"Male","Some College","Yes","english","spanish","french","","","english"
"",1368,"survey-likert",27,80489,"0.0-27.0","p196159",31,3,1,"R_1rIn8q0gSgucKQk","{""Q0"":1}",1,"lib/images/bengal_600x600.jpg","bengal",2,35,"Male","Some College","Yes","english","spanish","french","","","english"
"",1623,"survey-likert",28,82114,"0.0-28.0","p196159",31,3,1,"R_1rIn8q0gSgucKQk","{""Q0"":3}",3,"lib/images/siberian_600x600.jpg","siberian",4,35,"Male","Some College","Yes","english","spanish","french","","","english"
"",1921,"survey-likert",29,84038,"0.0-29.0","p196159",31,3,1,"R_1rIn8q0gSgucKQk","{""Q0"":2}",2,"lib/images/exotic_600x600.jpg","exotic",3,35,"Male","Some College","Yes","english","spanish","french","","","english"
"",1482,"survey-likert",30,85522,"0.0-30.0","p196159",31,3,1,"R_1rIn8q0gSgucKQk","{""Q0"":1}",1,"lib/images/egyptianmau_600x600.jpg","egyptianmau",2,35,"Male","Some College","Yes","english","spanish","french","","","english"
"",1561,"survey-likert",31,87085,"0.0-31.0","p196159",31,3,1,"R_1rIn8q0gSgucKQk","{""Q0"":0}",0,"lib/images/sphynx_600x600.jpg","sphynx",1,35,"Male","Some College","Yes","english","spanish","french","","","english"
"",1392,"survey-likert",32,88479,"0.0-32.0","p196159",31,3,1,"R_1rIn8q0gSgucKQk","{""Q0"":4}",4,"lib/images/americancurl_600x600.jpg","americancurl",5,35,"Male","Some College","Yes","english","spanish","french","","","english"
"",2264,"survey-likert",33,90745,"0.0-33.0","p196159",31,3,1,"R_1rIn8q0gSgucKQk","{""Q0"":3}",3,"lib/images/shorthair_calico_600x600.jpg","shorthair_calico",4,35,"Male","Some College","Yes","english","spanish","french","","","english"
"",1633,"survey-likert",34,92380,"0.0-34.0","p196159",31,3,1,"R_1rIn8q0gSgucKQk","{""Q0"":1}",1,"lib/images/oriental_600x600.jpg","oriental",2,35,"Male","Some College","Yes","english","spanish","french","","","english"
"",2553,"survey-likert",35,94935,"0.0-35.0","p196159",31,3,1,"R_1rIn8q0gSgucKQk","{""Q0"":3}",3,"lib/images/siamese_600x600.jpg","siamese",4,35,"Male","Some College","Yes","english","spanish","french","","","english"
"[{""page_index"":0,""viewing_time"":23792}]",23792,"instructions",0,23805,"0.0-0.0","p196311",31,3,1,"R_21dmxRvedOp26vF","",NA,"","",NA,26,"Female","Bachelor's Degree","No","","","","","",""
"",14951,"survey-likert",1,38758,"0.0-1.0","p196311",31,3,1,"R_21dmxRvedOp26vF","{""Q0"":2}",2,"lib/images/angelfish_600x600.jpg","angelfish",3,26,"Female","Bachelor's Degree","No","","","","","",""
"",6437,"survey-likert",2,45217,"0.0-2.0","p196311",31,3,1,"R_21dmxRvedOp26vF","{""Q0"":3}",3,"lib/images/sturgeon_600x600.jpg","sturgeon",4,26,"Female","Bachelor's Degree","No","","","","","",""
"",4640,"survey-likert",3,49880,"0.0-3.0","p196311",31,3,1,"R_21dmxRvedOp26vF","{""Q0"":3}",3,"lib/images/catfish_600x600.jpg","catfish",4,26,"Female","Bachelor's Degree","No","","","","","",""
"",2029,"survey-likert",4,51921,"0.0-4.0","p196311",31,3,1,"R_21dmxRvedOp26vF","{""Q0"":2}",2,"lib/images/clownfish_600x600.jpg","clownfish",3,26,"Female","Bachelor's Degree","No","","","","","",""
"",6078,"survey-likert",5,58013,"0.0-5.0","p196311",31,3,1,"R_21dmxRvedOp26vF","{""Q0"":3}",3,"lib/images/koi_600x600.jpg","koi",4,26,"Female","Bachelor's Degree","No","","","","","",""
"",2787,"survey-likert",6,60825,"0.0-6.0","p196311",31,3,1,"R_21dmxRvedOp26vF","{""Q0"":0}",0,"lib/images/pufferfish_600x600.jpg","pufferfish",1,26,"Female","Bachelor's Degree","No","","","","","",""
"",2259,"survey-likert",7,63097,"0.0-7.0","p196311",31,3,1,"R_21dmxRvedOp26vF","{""Q0"":1}",1,"lib/images/seahorse_600x600.jpg","seahorse",2,26,"Female","Bachelor's Degree","No","","","","","",""
"",2383,"survey-likert",8,65495,"0.0-8.0","p196311",31,3,1,"R_21dmxRvedOp26vF","{""Q0"":2}",2,"lib/images/bluetang_600x600.jpg","bluetang",3,26,"Female","Bachelor's Degree","No","","","","","",""
"",4375,"survey-likert",9,69885,"0.0-9.0","p196311",31,3,1,"R_21dmxRvedOp26vF","{""Q0"":0}",0,"lib/images/stingray_600x600.jpg","stingray",1,26,"Female","Bachelor's Degree","No","","","","","",""
"",2476,"survey-likert",10,72377,"0.0-10.0","p196311",31,3,1,"R_21dmxRvedOp26vF","{""Q0"":0}",0,"lib/images/lionfish_600x600.jpg","lionfish",1,26,"Female","Bachelor's Degree","No","","","","","",""
"",2406,"survey-likert",11,74797,"0.0-11.0","p196311",31,3,1,"R_21dmxRvedOp26vF","{""Q0"":2}",2,"lib/images/sergeantmajor_600x600.jpg","sergeantmajor",3,26,"Female","Bachelor's Degree","No","","","","","",""
"",3635,"survey-likert",12,78446,"0.0-12.0","p196311",31,3,1,"R_21dmxRvedOp26vF","{""Q0"":1}",1,"lib/images/betafish_600x600.jpg","betafish",2,26,"Female","Bachelor's Degree","No","","","","","",""
"",2414,"survey-likert",13,80875,"0.0-13.0","p196311",31,3,1,"R_21dmxRvedOp26vF","{""Q0"":4}",4,"lib/images/goldfish_600x600.jpg","goldfish",5,26,"Female","Bachelor's Degree","No","","","","","",""
"",2399,"survey-likert",14,83289,"0.0-14.0","p196311",31,3,1,"R_21dmxRvedOp26vF","{""Q0"":4}",4,"lib/images/bass_600x600.jpg","bass",5,26,"Female","Bachelor's Degree","No","","","","","",""
"",6969,"survey-likert",15,90273,"0.0-15.0","p196311",31,3,1,"R_21dmxRvedOp26vF","{""Q0"":0}",0,"lib/images/cuttlefish_600x600.jpg","cuttlefish",1,26,"Female","Bachelor's Degree","No","","","","","",""
"",3851,"survey-likert",16,94139,"0.0-16.0","p196311",31,3,1,"R_21dmxRvedOp26vF","{""Q0"":4}",4,"lib/images/bluegill_600x600.jpg","bluegill",5,26,"Female","Bachelor's Degree","No","","","","","",""
"",2673,"survey-likert",17,96835,"0.0-17.0","p196311",31,3,1,"R_21dmxRvedOp26vF","{""Q0"":4}",4,"lib/images/salmon_600x600.jpg","salmon",5,26,"Female","Bachelor's Degree","No","","","","","",""
"[{""page_index"":0,""viewing_time"":16144}]",16145,"instructions",18,112995,"0.0-18.0","p196311",31,3,1,"R_21dmxRvedOp26vF","",NA,"","",NA,26,"Female","Bachelor's Degree","No","","","","","",""
"",7808,"survey-likert",19,120805,"0.0-19.0","p196311",31,3,1,"R_21dmxRvedOp26vF","{""Q0"":4}",4,"lib/images/bengal_600x600.jpg","bengal",5,26,"Female","Bachelor's Degree","No","","","","","",""
"",5167,"survey-likert",20,125983,"0.0-20.0","p196311",31,3,1,"R_21dmxRvedOp26vF","{""Q0"":3}",3,"lib/images/egyptianmau_600x600.jpg","egyptianmau",4,26,"Female","Bachelor's Degree","No","","","","","",""
"",3242,"survey-likert",21,129242,"0.0-21.0","p196311",31,3,1,"R_21dmxRvedOp26vF","{""Q0"":3}",3,"lib/images/toyger_600x600.jpg","toyger",4,26,"Female","Bachelor's Degree","No","","","","","",""
"",2810,"survey-likert",22,132067,"0.0-22.0","p196311",31,3,1,"R_21dmxRvedOp26vF","{""Q0"":2}",2,"lib/images/arabianmau_600x600.jpg","arabianmau",3,26,"Female","Bachelor's Degree","No","","","","","",""
"",6240,"survey-likert",23,138322,"0.0-23.0","p196311",31,3,1,"R_21dmxRvedOp26vF","{""Q0"":1}",1,"lib/images/sandcat_600x600.jpg","sandcat",2,26,"Female","Bachelor's Degree","No","","","","","",""
"",2881,"survey-likert",24,141213,"0.0-24.0","p196311",31,3,1,"R_21dmxRvedOp26vF","{""Q0"":3}",3,"lib/images/tabby_600x600.jpg","tabby",4,26,"Female","Bachelor's Degree","No","","","","","",""
"",6036,"survey-likert",25,147265,"0.0-25.0","p196311",31,3,1,"R_21dmxRvedOp26vF","{""Q0"":1}",1,"lib/images/cornishrex_600x600.jpg","cornishrex",2,26,"Female","Bachelor's Degree","No","","","","","",""
"",3086,"survey-likert",26,150366,"0.0-26.0","p196311",31,3,1,"R_21dmxRvedOp26vF","{""Q0"":2}",2,"lib/images/burmese_600x600.jpg","burmese",3,26,"Female","Bachelor's Degree","No","","","","","",""
"",2747,"survey-likert",27,153125,"0.0-27.0","p196311",31,3,1,"R_21dmxRvedOp26vF","{""Q0"":2}",2,"lib/images/siamese_600x600.jpg","siamese",3,26,"Female","Bachelor's Degree","No","","","","","",""
"",2351,"survey-likert",28,155491,"0.0-28.0","p196311",31,3,1,"R_21dmxRvedOp26vF","{""Q0"":3}",3,"lib/images/shorthair_calico_600x600.jpg","shorthair_calico",4,26,"Female","Bachelor's Degree","No","","","","","",""
"",2881,"survey-likert",29,158396,"0.0-29.0","p196311",31,3,1,"R_21dmxRvedOp26vF","{""Q0"":2}",2,"lib/images/siberian_600x600.jpg","siberian",3,26,"Female","Bachelor's Degree","No","","","","","",""
"",2880,"survey-likert",30,161295,"0.0-30.0","p196311",31,3,1,"R_21dmxRvedOp26vF","{""Q0"":3}",3,"lib/images/britishshorthair_600x600.jpg","britishshorthair",4,26,"Female","Bachelor's Degree","No","","","","","",""
"",10810,"survey-likert",31,172120,"0.0-31.0","p196311",31,3,1,"R_21dmxRvedOp26vF","{""Q0"":3}",3,"lib/images/chartreux_600x600.jpg","chartreux",4,26,"Female","Bachelor's Degree","No","","","","","",""
"",2993,"survey-likert",32,175136,"0.0-32.0","p196311",31,3,1,"R_21dmxRvedOp26vF","{""Q0"":2}",2,"lib/images/americancurl_600x600.jpg","americancurl",3,26,"Female","Bachelor's Degree","No","","","","","",""
"",2703,"survey-likert",33,177862,"0.0-33.0","p196311",31,3,1,"R_21dmxRvedOp26vF","{""Q0"":0}",0,"lib/images/sphynx_600x600.jpg","sphynx",1,26,"Female","Bachelor's Degree","No","","","","","",""
"",5555,"survey-likert",34,183432,"0.0-34.0","p196311",31,3,1,"R_21dmxRvedOp26vF","{""Q0"":1}",1,"lib/images/exotic_600x600.jpg","exotic",2,26,"Female","Bachelor's Degree","No","","","","","",""
"",4664,"survey-likert",35,188120,"0.0-35.0","p196311",31,3,1,"R_21dmxRvedOp26vF","{""Q0"":1}",1,"lib/images/oriental_600x600.jpg","oriental",2,26,"Female","Bachelor's Degree","No","","","","","",""
"[{""page_index"":0,""viewing_time"":9094}]",9095,"instructions",0,9128,"0.0-0.0","p199922",13,1,3,"R_7Pa2A9V6izJfcjL","",NA,"","",NA,23,"Male","High School / GED","No","","","","","",""
"",5953,"survey-likert",1,15084,"0.0-1.0","p199922",13,1,3,"R_7Pa2A9V6izJfcjL","{""Q0"":4}",4,"lib/images/tabby_600x600.jpg","tabby",5,23,"Male","High School / GED","No","","","","","",""
"",3782,"survey-likert",2,18867,"0.0-2.0","p199922",13,1,3,"R_7Pa2A9V6izJfcjL","{""Q0"":0}",0,"lib/images/oriental_600x600.jpg","oriental",1,23,"Male","High School / GED","No","","","","","",""
"",9270,"survey-likert",3,28139,"0.0-3.0","p199922",13,1,3,"R_7Pa2A9V6izJfcjL","{""Q0"":3}",3,"lib/images/bengal_600x600.jpg","bengal",4,23,"Male","High School / GED","No","","","","","",""
"",7574,"survey-likert",4,35715,"0.0-4.0","p199922",13,1,3,"R_7Pa2A9V6izJfcjL","{""Q0"":3}",3,"lib/images/shorthair_calico_600x600.jpg","shorthair_calico",4,23,"Male","High School / GED","No","","","","","",""
"",4126,"survey-likert",5,39844,"0.0-5.0","p199922",13,1,3,"R_7Pa2A9V6izJfcjL","{""Q0"":1}",1,"lib/images/burmese_600x600.jpg","burmese",2,23,"Male","High School / GED","No","","","","","",""
"",4837,"survey-likert",6,44683,"0.0-6.0","p199922",13,1,3,"R_7Pa2A9V6izJfcjL","{""Q0"":2}",2,"lib/images/americancurl_600x600.jpg","americancurl",3,23,"Male","High School / GED","No","","","","","",""
"",4508,"survey-likert",7,49193,"0.0-7.0","p199922",13,1,3,"R_7Pa2A9V6izJfcjL","{""Q0"":2}",2,"lib/images/exotic_600x600.jpg","exotic",3,23,"Male","High School / GED","No","","","","","",""
"",3688,"survey-likert",8,52883,"0.0-8.0","p199922",13,1,3,"R_7Pa2A9V6izJfcjL","{""Q0"":1}",1,"lib/images/sphynx_600x600.jpg","sphynx",2,23,"Male","High School / GED","No","","","","","",""
"",4376,"survey-likert",9,57261,"0.0-9.0","p199922",13,1,3,"R_7Pa2A9V6izJfcjL","{""Q0"":3}",3,"lib/images/egyptianmau_600x600.jpg","egyptianmau",4,23,"Male","High School / GED","No","","","","","",""
"",4048,"survey-likert",10,61312,"0.0-10.0","p199922",13,1,3,"R_7Pa2A9V6izJfcjL","{""Q0"":3}",3,"lib/images/chartreux_600x600.jpg","chartreux",4,23,"Male","High School / GED","No","","","","","",""
"",6496,"survey-likert",11,67809,"0.0-11.0","p199922",13,1,3,"R_7Pa2A9V6izJfcjL","{""Q0"":3}",3,"lib/images/siberian_600x600.jpg","siberian",4,23,"Male","High School / GED","No","","","","","",""
"",3298,"survey-likert",12,71109,"0.0-12.0","p199922",13,1,3,"R_7Pa2A9V6izJfcjL","{""Q0"":4}",4,"lib/images/britishshorthair_600x600.jpg","britishshorthair",5,23,"Male","High School / GED","No","","","","","",""
"",3030,"survey-likert",13,74142,"0.0-13.0","p199922",13,1,3,"R_7Pa2A9V6izJfcjL","{""Q0"":0}",0,"lib/images/cornishrex_600x600.jpg","cornishrex",1,23,"Male","High School / GED","No","","","","","",""
"",3029,"survey-likert",14,77173,"0.0-14.0","p199922",13,1,3,"R_7Pa2A9V6izJfcjL","{""Q0"":1}",1,"lib/images/arabianmau_600x600.jpg","arabianmau",2,23,"Male","High School / GED","No","","","","","",""
"",3475,"survey-likert",15,80653,"0.0-15.0","p199922",13,1,3,"R_7Pa2A9V6izJfcjL","{""Q0"":1}",1,"lib/images/sandcat_600x600.jpg","sandcat",2,23,"Male","High School / GED","No","","","","","",""
"",3048,"survey-likert",16,83703,"0.0-16.0","p199922",13,1,3,"R_7Pa2A9V6izJfcjL","{""Q0"":3}",3,"lib/images/toyger_600x600.jpg","toyger",4,23,"Male","High School / GED","No","","","","","",""
"",3132,"survey-likert",17,86838,"0.0-17.0","p199922",13,1,3,"R_7Pa2A9V6izJfcjL","{""Q0"":4}",4,"lib/images/siamese_600x600.jpg","siamese",5,23,"Male","High School / GED","No","","","","","",""
"[{""page_index"":0,""viewing_time"":3930}]",3931,"instructions",18,90771,"0.0-18.0","p199922",13,1,3,"R_7Pa2A9V6izJfcjL","",NA,"","",NA,23,"Male","High School / GED","No","","","","","",""
"",4266,"survey-likert",19,95039,"0.0-19.0","p199922",13,1,3,"R_7Pa2A9V6izJfcjL","{""Q0"":1}",1,"lib/images/salmon_600x600.jpg","salmon",2,23,"Male","High School / GED","No","","","","","",""
"",2704,"survey-likert",20,97745,"0.0-20.0","p199922",13,1,3,"R_7Pa2A9V6izJfcjL","{""Q0"":4}",4,"lib/images/clownfish_600x600.jpg","clownfish",5,23,"Male","High School / GED","No","","","","","",""
"",3758,"survey-likert",21,101505,"0.0-21.0","p199922",13,1,3,"R_7Pa2A9V6izJfcjL","{""Q0"":2}",2,"lib/images/stingray_600x600.jpg","stingray",3,23,"Male","High School / GED","No","","","","","",""
"",3424,"survey-likert",22,104931,"0.0-22.0","p199922",13,1,3,"R_7Pa2A9V6izJfcjL","{""Q0"":1}",1,"lib/images/bass_600x600.jpg","bass",2,23,"Male","High School / GED","No","","","","","",""
"",3125,"survey-likert",23,108057,"0.0-23.0","p199922",13,1,3,"R_7Pa2A9V6izJfcjL","{""Q0"":0}",0,"lib/images/bluegill_600x600.jpg","bluegill",1,23,"Male","High School / GED","No","","","","","",""
"",3047,"survey-likert",24,111108,"0.0-24.0","p199922",13,1,3,"R_7Pa2A9V6izJfcjL","{""Q0"":0}",0,"lib/images/cuttlefish_600x600.jpg","cuttlefish",1,23,"Male","High School / GED","No","","","","","",""
"",3437,"survey-likert",25,114547,"0.0-25.0","p199922",13,1,3,"R_7Pa2A9V6izJfcjL","{""Q0"":3}",3,"lib/images/seahorse_600x600.jpg","seahorse",4,23,"Male","High School / GED","No","","","","","",""
"",3000,"survey-likert",26,117549,"0.0-26.0","p199922",13,1,3,"R_7Pa2A9V6izJfcjL","{""Q0"":0}",0,"lib/images/sturgeon_600x600.jpg","sturgeon",1,23,"Male","High School / GED","No","","","","","",""
"",3108,"survey-likert",27,120659,"0.0-27.0","p199922",13,1,3,"R_7Pa2A9V6izJfcjL","{""Q0"":4}",4,"lib/images/goldfish_600x600.jpg","goldfish",5,23,"Male","High School / GED","No","","","","","",""
"",3229,"survey-likert",28,123889,"0.0-28.0","p199922",13,1,3,"R_7Pa2A9V6izJfcjL","{""Q0"":3}",3,"lib/images/lionfish_600x600.jpg","lionfish",4,23,"Male","High School / GED","No","","","","","",""
"",4109,"survey-likert",29,128001,"0.0-29.0","p199922",13,1,3,"R_7Pa2A9V6izJfcjL","{""Q0"":2}",2,"lib/images/koi_600x600.jpg","koi",3,23,"Male","High School / GED","No","","","","","",""
"",3078,"survey-likert",30,131081,"0.0-30.0","p199922",13,1,3,"R_7Pa2A9V6izJfcjL","{""Q0"":1}",1,"lib/images/sergeantmajor_600x600.jpg","sergeantmajor",2,23,"Male","High School / GED","No","","","","","",""
"",3648,"survey-likert",31,134731,"0.0-31.0","p199922",13,1,3,"R_7Pa2A9V6izJfcjL","{""Q0"":4}",4,"lib/images/pufferfish_600x600.jpg","pufferfish",5,23,"Male","High School / GED","No","","","","","",""
"",2742,"survey-likert",32,137475,"0.0-32.0","p199922",13,1,3,"R_7Pa2A9V6izJfcjL","{""Q0"":3}",3,"lib/images/angelfish_600x600.jpg","angelfish",4,23,"Male","High School / GED","No","","","","","",""
"",2523,"survey-likert",33,140001,"0.0-33.0","p199922",13,1,3,"R_7Pa2A9V6izJfcjL","{""Q0"":3}",3,"lib/images/catfish_600x600.jpg","catfish",4,23,"Male","High School / GED","No","","","","","",""
"",3782,"survey-likert",34,143785,"0.0-34.0","p199922",13,1,3,"R_7Pa2A9V6izJfcjL","{""Q0"":2}",2,"lib/images/betafish_600x600.jpg","betafish",3,23,"Male","High School / GED","No","","","","","",""
"",3889,"survey-likert",35,147677,"0.0-35.0","p199922",13,1,3,"R_7Pa2A9V6izJfcjL","{""Q0"":2}",2,"lib/images/bluetang_600x600.jpg","bluetang",3,23,"Male","High School / GED","No","","","","","",""
"[{""page_index"":0,""viewing_time"":13093}]",13093,"instructions",0,13105,"0.0-0.0","p2081",23,2,3,"R_6mUcrcPRZhYrpv3","",NA,"","",NA,27,"Male","Bachelor's Degree","Yes","","","","","",""
"",2686,"survey-likert",1,15792,"0.0-1.0","p2081",23,2,3,"R_6mUcrcPRZhYrpv3","{""Q0"":4}",4,"lib/images/greyhound_600x600.jpg","greyhound",5,27,"Male","Bachelor's Degree","Yes","","","","","",""
"",10742,"survey-likert",2,26537,"0.0-2.0","p2081",23,2,3,"R_6mUcrcPRZhYrpv3","{""Q0"":4}",4,"lib/images/goldenretriever_600x600.jpg","goldenretriever",5,27,"Male","Bachelor's Degree","Yes","","","","","",""
"",1556,"survey-likert",3,28096,"0.0-3.0","p2081",23,2,3,"R_6mUcrcPRZhYrpv3","{""Q0"":4}",4,"lib/images/yorkshireterrier_600x600.jpg","yorkshireterrier",5,27,"Male","Bachelor's Degree","Yes","","","","","",""
"",1934,"survey-likert",4,30033,"0.0-4.0","p2081",23,2,3,"R_6mUcrcPRZhYrpv3","{""Q0"":4}",4,"lib/images/dalmatian_600x600.jpg","dalmatian",5,27,"Male","Bachelor's Degree","Yes","","","","","",""
"",2168,"survey-likert",5,32204,"0.0-5.0","p2081",23,2,3,"R_6mUcrcPRZhYrpv3","{""Q0"":3}",3,"lib/images/chihuahua_600x600.jpg","chihuahua",4,27,"Male","Bachelor's Degree","Yes","","","","","",""
"",2036,"survey-likert",6,34242,"0.0-6.0","p2081",23,2,3,"R_6mUcrcPRZhYrpv3","{""Q0"":4}",4,"lib/images/saintbernard_600x600.jpg","saintbernard",5,27,"Male","Bachelor's Degree","Yes","","","","","",""
"",1586,"survey-likert",7,35831,"0.0-7.0","p2081",23,2,3,"R_6mUcrcPRZhYrpv3","{""Q0"":4}",4,"lib/images/germanshepherd_600x600.jpg","germanshepherd",5,27,"Male","Bachelor's Degree","Yes","","","","","",""
"",14764,"survey-likert",8,50600,"0.0-8.0","p2081",23,2,3,"R_6mUcrcPRZhYrpv3","{""Q0"":4}",4,"lib/images/foxhound_600x600.jpg","foxhound",5,27,"Male","Bachelor's Degree","Yes","","","","","",""
"",13415,"survey-likert",9,64018,"0.0-9.0","p2081",23,2,3,"R_6mUcrcPRZhYrpv3","{""Q0"":0}",0,"lib/images/bassethound_600x600.jpg","bassethound",1,27,"Male","Bachelor's Degree","Yes","","","","","",""
"",5005,"survey-likert",10,69026,"0.0-10.0","p2081",23,2,3,"R_6mUcrcPRZhYrpv3","{""Q0"":1}",1,"lib/images/afghanhound_600x600.jpg","afghanhound",2,27,"Male","Bachelor's Degree","Yes","","","","","",""
"",7678,"survey-likert",11,76707,"0.0-11.0","p2081",23,2,3,"R_6mUcrcPRZhYrpv3","{""Q0"":1}",1,"lib/images/labrador_600x600.jpg","labrador",2,27,"Male","Bachelor's Degree","Yes","","","","","",""
"",4871,"survey-likert",12,81581,"0.0-12.0","p2081",23,2,3,"R_6mUcrcPRZhYrpv3","{""Q0"":3}",3,"lib/images/beagle_600x600.jpg","beagle",4,27,"Male","Bachelor's Degree","Yes","","","","","",""
"",3876,"survey-likert",13,85460,"0.0-13.0","p2081",23,2,3,"R_6mUcrcPRZhYrpv3","{""Q0"":1}",1,"lib/images/sheepdog_600x600.jpg","sheepdog",2,27,"Male","Bachelor's Degree","Yes","","","","","",""
"",2181,"survey-likert",14,87645,"0.0-14.0","p2081",23,2,3,"R_6mUcrcPRZhYrpv3","{""Q0"":4}",4,"lib/images/pug_600x600.jpg","pug",5,27,"Male","Bachelor's Degree","Yes","","","","","",""
"",1590,"survey-likert",15,89238,"0.0-15.0","p2081",23,2,3,"R_6mUcrcPRZhYrpv3","{""Q0"":4}",4,"lib/images/rottweiler_600x600.jpg","rottweiler",5,27,"Male","Bachelor's Degree","Yes","","","","","",""
"",1542,"survey-likert",16,90782,"0.0-16.0","p2081",23,2,3,"R_6mUcrcPRZhYrpv3","{""Q0"":4}",4,"lib/images/husky_600x600.jpg","husky",5,27,"Male","Bachelor's Degree","Yes","","","","","",""
"[{""page_index"":0,""viewing_time"":2492}]",2492,"instructions",17,93277,"0.0-17.0","p2081",23,2,3,"R_6mUcrcPRZhYrpv3","",NA,"","",NA,27,"Male","Bachelor's Degree","Yes","","","","","",""
"",3053,"survey-likert",18,96332,"0.0-18.0","p2081",23,2,3,"R_6mUcrcPRZhYrpv3","{""Q0"":2}",2,"lib/images/sturgeon_600x600.jpg","sturgeon",3,27,"Male","Bachelor's Degree","Yes","","","","","",""
"",1494,"survey-likert",19,97829,"0.0-19.0","p2081",23,2,3,"R_6mUcrcPRZhYrpv3","{""Q0"":3}",3,"lib/images/bluegill_600x600.jpg","bluegill",4,27,"Male","Bachelor's Degree","Yes","","","","","",""
"",1598,"survey-likert",20,99430,"0.0-20.0","p2081",23,2,3,"R_6mUcrcPRZhYrpv3","{""Q0"":3}",3,"lib/images/salmon_600x600.jpg","salmon",4,27,"Male","Bachelor's Degree","Yes","","","","","",""
"",1805,"survey-likert",21,101238,"0.0-21.0","p2081",23,2,3,"R_6mUcrcPRZhYrpv3","{""Q0"":3}",3,"lib/images/seahorse_600x600.jpg","seahorse",4,27,"Male","Bachelor's Degree","Yes","","","","","",""
"",8899,"survey-likert",22,110140,"0.0-22.0","p2081",23,2,3,"R_6mUcrcPRZhYrpv3","{""Q0"":3}",3,"lib/images/koi_600x600.jpg","koi",4,27,"Male","Bachelor's Degree","Yes","","","","","",""
"",2175,"survey-likert",23,112319,"0.0-23.0","p2081",23,2,3,"R_6mUcrcPRZhYrpv3","{""Q0"":3}",3,"lib/images/pufferfish_600x600.jpg","pufferfish",4,27,"Male","Bachelor's Degree","Yes","","","","","",""
"",1483,"survey-likert",24,113806,"0.0-24.0","p2081",23,2,3,"R_6mUcrcPRZhYrpv3","{""Q0"":3}",3,"lib/images/goldfish_600x600.jpg","goldfish",4,27,"Male","Bachelor's Degree","Yes","","","","","",""
"",1652,"survey-likert",25,115460,"0.0-25.0","p2081",23,2,3,"R_6mUcrcPRZhYrpv3","{""Q0"":2}",2,"lib/images/stingray_600x600.jpg","stingray",3,27,"Male","Bachelor's Degree","Yes","","","","","",""
"",1947,"survey-likert",26,117410,"0.0-26.0","p2081",23,2,3,"R_6mUcrcPRZhYrpv3","{""Q0"":1}",1,"lib/images/betafish_600x600.jpg","betafish",2,27,"Male","Bachelor's Degree","Yes","","","","","",""
"",1469,"survey-likert",27,118882,"0.0-27.0","p2081",23,2,3,"R_6mUcrcPRZhYrpv3","{""Q0"":3}",3,"lib/images/cuttlefish_600x600.jpg","cuttlefish",4,27,"Male","Bachelor's Degree","Yes","","","","","",""
"",3708,"survey-likert",28,122593,"0.0-28.0","p2081",23,2,3,"R_6mUcrcPRZhYrpv3","{""Q0"":3}",3,"lib/images/bass_600x600.jpg","bass",4,27,"Male","Bachelor's Degree","Yes","","","","","",""
"",1716,"survey-likert",29,124312,"0.0-29.0","p2081",23,2,3,"R_6mUcrcPRZhYrpv3","{""Q0"":3}",3,"lib/images/angelfish_600x600.jpg","angelfish",4,27,"Male","Bachelor's Degree","Yes","","","","","",""
"",1653,"survey-likert",30,125968,"0.0-30.0","p2081",23,2,3,"R_6mUcrcPRZhYrpv3","{""Q0"":2}",2,"lib/images/catfish_600x600.jpg","catfish",3,27,"Male","Bachelor's Degree","Yes","","","","","",""
"",3589,"survey-likert",31,129561,"0.0-31.0","p2081",23,2,3,"R_6mUcrcPRZhYrpv3","{""Q0"":4}",4,"lib/images/clownfish_600x600.jpg","clownfish",5,27,"Male","Bachelor's Degree","Yes","","","","","",""
"",2480,"survey-likert",32,132044,"0.0-32.0","p2081",23,2,3,"R_6mUcrcPRZhYrpv3","{""Q0"":2}",2,"lib/images/bluetang_600x600.jpg","bluetang",3,27,"Male","Bachelor's Degree","Yes","","","","","",""
"",1846,"survey-likert",33,133894,"0.0-33.0","p2081",23,2,3,"R_6mUcrcPRZhYrpv3","{""Q0"":3}",3,"lib/images/sergeantmajor_600x600.jpg","sergeantmajor",4,27,"Male","Bachelor's Degree","Yes","","","","","",""
"",1730,"survey-likert",34,135627,"0.0-34.0","p2081",23,2,3,"R_6mUcrcPRZhYrpv3","{""Q0"":2}",2,"lib/images/lionfish_600x600.jpg","lionfish",3,27,"Male","Bachelor's Degree","Yes","","","","","",""
"[{""page_index"":0,""viewing_time"":2567}]",2569,"instructions",0,2585,"0.0-0.0","p210817",2,0,2,"R_3e2MzaVaJeRoIkU","",NA,"","",NA,28,"Male","Bachelor's Degree","No","","","","","",""
"",7985,"survey-likert",1,10574,"0.0-1.0","p210817",2,0,2,"R_3e2MzaVaJeRoIkU","{""Q0"":4}",4,"lib/images/parrot_600x600.jpg","parrot",5,28,"Male","Bachelor's Degree","No","","","","","",""
"",3124,"survey-likert",2,13701,"0.0-2.0","p210817",2,0,2,"R_3e2MzaVaJeRoIkU","{""Q0"":4}",4,"lib/images/vulture_600x600.jpg","vulture",5,28,"Male","Bachelor's Degree","No","","","","","",""
"",2549,"survey-likert",3,16253,"0.0-3.0","p210817",2,0,2,"R_3e2MzaVaJeRoIkU","{""Q0"":4}",4,"lib/images/bluejay_600x600.jpg","bluejay",5,28,"Male","Bachelor's Degree","No","","","","","",""
"",2998,"survey-likert",4,19253,"0.0-4.0","p210817",2,0,2,"R_3e2MzaVaJeRoIkU","{""Q0"":4}",4,"lib/images/toucan_600x600.jpg","toucan",5,28,"Male","Bachelor's Degree","No","","","","","",""
"",4076,"survey-likert",5,23333,"0.0-5.0","p210817",2,0,2,"R_3e2MzaVaJeRoIkU","{""Q0"":4}",4,"lib/images/kookaburra_600x600.jpg","kookaburra",5,28,"Male","Bachelor's Degree","No","","","","","",""
"",3133,"survey-likert",6,26469,"0.0-6.0","p210817",2,0,2,"R_3e2MzaVaJeRoIkU","{""Q0"":3}",3,"lib/images/heron_600x600.jpg","heron",4,28,"Male","Bachelor's Degree","No","","","","","",""
"",3253,"survey-likert",7,29725,"0.0-7.0","p210817",2,0,2,"R_3e2MzaVaJeRoIkU","{""Q0"":3}",3,"lib/images/turkey_600x600.jpg","turkey",4,28,"Male","Bachelor's Degree","No","","","","","",""
"",3517,"survey-likert",8,33245,"0.0-8.0","p210817",2,0,2,"R_3e2MzaVaJeRoIkU","{""Q0"":3}",3,"lib/images/puffin_600x600.jpg","puffin",4,28,"Male","Bachelor's Degree","No","","","","","",""
"",2886,"survey-likert",9,36133,"0.0-9.0","p210817",2,0,2,"R_3e2MzaVaJeRoIkU","{""Q0"":4}",4,"lib/images/sparrow_600x600.jpg","sparrow",5,28,"Male","Bachelor's Degree","No","","","","","",""
"",3020,"survey-likert",10,39157,"0.0-10.0","p210817",2,0,2,"R_3e2MzaVaJeRoIkU","{""Q0"":4}",4,"lib/images/owl_600x600.jpg","owl",5,28,"Male","Bachelor's Degree","No","","","","","",""
"",2310,"survey-likert",11,41469,"0.0-11.0","p210817",2,0,2,"R_3e2MzaVaJeRoIkU","{""Q0"":4}",4,"lib/images/pelican_600x600.jpg","pelican",5,28,"Male","Bachelor's Degree","No","","","","","",""
"",3069,"survey-likert",12,44541,"0.0-12.0","p210817",2,0,2,"R_3e2MzaVaJeRoIkU","{""Q0"":4}",4,"lib/images/cedarwaxwing_600x600.jpg","cedarwaxwing",5,28,"Male","Bachelor's Degree","No","","","","","",""
"",3492,"survey-likert",13,48036,"0.0-13.0","p210817",2,0,2,"R_3e2MzaVaJeRoIkU","{""Q0"":4}",4,"lib/images/cardinal_600x600.jpg","cardinal",5,28,"Male","Bachelor's Degree","No","","","","","",""
"",5782,"survey-likert",14,53821,"0.0-14.0","p210817",2,0,2,"R_3e2MzaVaJeRoIkU","{""Q0"":4}",4,"lib/images/goldfinch_600x600.jpg","goldfinch",5,28,"Male","Bachelor's Degree","No","","","","","",""
"",1502,"survey-likert",15,55324,"0.0-15.0","p210817",2,0,2,"R_3e2MzaVaJeRoIkU","{""Q0"":4}",4,"lib/images/seagull_600x600.jpg","seagull",5,28,"Male","Bachelor's Degree","No","","","","","",""
"",1294,"survey-likert",16,56621,"0.0-16.0","p210817",2,0,2,"R_3e2MzaVaJeRoIkU","{""Q0"":4}",4,"lib/images/falcon_600x600.jpg","falcon",5,28,"Male","Bachelor's Degree","No","","","","","",""
"",1461,"survey-likert",17,58084,"0.0-17.0","p210817",2,0,2,"R_3e2MzaVaJeRoIkU","{""Q0"":4}",4,"lib/images/kingfisher_600x600.jpg","kingfisher",5,28,"Male","Bachelor's Degree","No","","","","","",""
"",2149,"survey-likert",18,60237,"0.0-18.0","p210817",2,0,2,"R_3e2MzaVaJeRoIkU","{""Q0"":4}",4,"lib/images/peacock_600x600.jpg","peacock",5,28,"Male","Bachelor's Degree","No","","","","","",""
"",1134,"survey-likert",19,61374,"0.0-19.0","p210817",2,0,2,"R_3e2MzaVaJeRoIkU","{""Q0"":4}",4,"lib/images/robin_600x600.jpg","robin",5,28,"Male","Bachelor's Degree","No","","","","","",""
"",1108,"survey-likert",20,62486,"0.0-20.0","p210817",2,0,2,"R_3e2MzaVaJeRoIkU","{""Q0"":4}",4,"lib/images/pigeon_600x600.jpg","pigeon",5,28,"Male","Bachelor's Degree","No","","","","","",""
"[{""page_index"":0,""viewing_time"":2914}]",2914,"instructions",21,65404,"0.0-21.0","p210817",2,0,2,"R_3e2MzaVaJeRoIkU","",NA,"","",NA,28,"Male","Bachelor's Degree","No","","","","","",""
"",2742,"survey-likert",22,68149,"0.0-22.0","p210817",2,0,2,"R_3e2MzaVaJeRoIkU","{""Q0"":4}",4,"lib/images/greyhound_600x600.jpg","greyhound",5,28,"Male","Bachelor's Degree","No","","","","","",""
"",1861,"survey-likert",23,70012,"0.0-23.0","p210817",2,0,2,"R_3e2MzaVaJeRoIkU","{""Q0"":4}",4,"lib/images/labrador_600x600.jpg","labrador",5,28,"Male","Bachelor's Degree","No","","","","","",""
"",1382,"survey-likert",24,71396,"0.0-24.0","p210817",2,0,2,"R_3e2MzaVaJeRoIkU","{""Q0"":4}",4,"lib/images/afghanhound_600x600.jpg","afghanhound",5,28,"Male","Bachelor's Degree","No","","","","","",""
"",910,"survey-likert",25,72308,"0.0-25.0","p210817",2,0,2,"R_3e2MzaVaJeRoIkU","{""Q0"":4}",4,"lib/images/sheepdog_600x600.jpg","sheepdog",5,28,"Male","Bachelor's Degree","No","","","","","",""
"",893,"survey-likert",26,73204,"0.0-26.0","p210817",2,0,2,"R_3e2MzaVaJeRoIkU","{""Q0"":4}",4,"lib/images/foxhound_600x600.jpg","foxhound",5,28,"Male","Bachelor's Degree","No","","","","","",""
"",886,"survey-likert",27,74092,"0.0-27.0","p210817",2,0,2,"R_3e2MzaVaJeRoIkU","{""Q0"":4}",4,"lib/images/saintbernard_600x600.jpg","saintbernard",5,28,"Male","Bachelor's Degree","No","","","","","",""
"",862,"survey-likert",28,74956,"0.0-28.0","p210817",2,0,2,"R_3e2MzaVaJeRoIkU","{""Q0"":4}",4,"lib/images/pug_600x600.jpg","pug",5,28,"Male","Bachelor's Degree","No","","","","","",""
"",838,"survey-likert",29,75797,"0.0-29.0","p210817",2,0,2,"R_3e2MzaVaJeRoIkU","{""Q0"":4}",4,"lib/images/husky_600x600.jpg","husky",5,28,"Male","Bachelor's Degree","No","","","","","",""
"",892,"survey-likert",30,76692,"0.0-30.0","p210817",2,0,2,"R_3e2MzaVaJeRoIkU","{""Q0"":4}",4,"lib/images/germanshepherd_600x600.jpg","germanshepherd",5,28,"Male","Bachelor's Degree","No","","","","","",""
"",862,"survey-likert",31,77556,"0.0-31.0","p210817",2,0,2,"R_3e2MzaVaJeRoIkU","{""Q0"":4}",4,"lib/images/yorkshireterrier_600x600.jpg","yorkshireterrier",5,28,"Male","Bachelor's Degree","No","","","","","",""
"",1030,"survey-likert",32,78588,"0.0-32.0","p210817",2,0,2,"R_3e2MzaVaJeRoIkU","{""Q0"":4}",4,"lib/images/dalmatian_600x600.jpg","dalmatian",5,28,"Male","Bachelor's Degree","No","","","","","",""
"",837,"survey-likert",33,79428,"0.0-33.0","p210817",2,0,2,"R_3e2MzaVaJeRoIkU","{""Q0"":4}",4,"lib/images/beagle_600x600.jpg","beagle",5,28,"Male","Bachelor's Degree","No","","","","","",""
"",877,"survey-likert",34,80308,"0.0-34.0","p210817",2,0,2,"R_3e2MzaVaJeRoIkU","{""Q0"":4}",4,"lib/images/chihuahua_600x600.jpg","chihuahua",5,28,"Male","Bachelor's Degree","No","","","","","",""
"",893,"survey-likert",35,81204,"0.0-35.0","p210817",2,0,2,"R_3e2MzaVaJeRoIkU","{""Q0"":4}",4,"lib/images/goldenretriever_600x600.jpg","goldenretriever",5,28,"Male","Bachelor's Degree","No","","","","","",""
"",909,"survey-likert",36,82116,"0.0-36.0","p210817",2,0,2,"R_3e2MzaVaJeRoIkU","{""Q0"":4}",4,"lib/images/rottweiler_600x600.jpg","rottweiler",5,28,"Male","Bachelor's Degree","No","","","","","",""
"",828,"survey-likert",37,82948,"0.0-37.0","p210817",2,0,2,"R_3e2MzaVaJeRoIkU","{""Q0"":4}",4,"lib/images/bassethound_600x600.jpg","bassethound",5,28,"Male","Bachelor's Degree","No","","","","","",""
"[{""page_index"":0,""viewing_time"":1931}]",1932,"instructions",0,1954,"0.0-0.0","p216215",3,0,3,"R_VX1tcPu0dhkoheF","",NA,"","",NA,30,"Female","High School / GED","No","","","","","",""
"",8538,"survey-likert",1,10498,"0.0-1.0","p216215",3,0,3,"R_VX1tcPu0dhkoheF","{""Q0"":0}",0,"lib/images/turkey_600x600.jpg","turkey",1,30,"Female","High School / GED","No","","","","","",""
"",1909,"survey-likert",2,12416,"0.0-2.0","p216215",3,0,3,"R_VX1tcPu0dhkoheF","{""Q0"":4}",4,"lib/images/cedarwaxwing_600x600.jpg","cedarwaxwing",5,30,"Female","High School / GED","No","","","","","",""
"",2781,"survey-likert",3,15201,"0.0-3.0","p216215",3,0,3,"R_VX1tcPu0dhkoheF","{""Q0"":4}",4,"lib/images/falcon_600x600.jpg","falcon",5,30,"Female","High School / GED","No","","","","","",""
"",2126,"survey-likert",4,17329,"0.0-4.0","p216215",3,0,3,"R_VX1tcPu0dhkoheF","{""Q0"":3}",3,"lib/images/bluejay_600x600.jpg","bluejay",4,30,"Female","High School / GED","No","","","","","",""
"",1877,"survey-likert",5,19210,"0.0-5.0","p216215",3,0,3,"R_VX1tcPu0dhkoheF","{""Q0"":1}",1,"lib/images/pelican_600x600.jpg","pelican",2,30,"Female","High School / GED","No","","","","","",""
"",1486,"survey-likert",6,20699,"0.0-6.0","p216215",3,0,3,"R_VX1tcPu0dhkoheF","{""Q0"":4}",4,"lib/images/sparrow_600x600.jpg","sparrow",5,30,"Female","High School / GED","No","","","","","",""
"",2278,"survey-likert",7,22980,"0.0-7.0","p216215",3,0,3,"R_VX1tcPu0dhkoheF","{""Q0"":2}",2,"lib/images/owl_600x600.jpg","owl",3,30,"Female","High School / GED","No","","","","","",""
"",1547,"survey-likert",8,24528,"0.0-8.0","p216215",3,0,3,"R_VX1tcPu0dhkoheF","{""Q0"":3}",3,"lib/images/robin_600x600.jpg","robin",4,30,"Female","High School / GED","No","","","","","",""
"",1526,"survey-likert",9,26057,"0.0-9.0","p216215",3,0,3,"R_VX1tcPu0dhkoheF","{""Q0"":2}",2,"lib/images/parrot_600x600.jpg","parrot",3,30,"Female","High School / GED","No","","","","","",""
"",1555,"survey-likert",10,27615,"0.0-10.0","p216215",3,0,3,"R_VX1tcPu0dhkoheF","{""Q0"":1}",1,"lib/images/toucan_600x600.jpg","toucan",2,30,"Female","High School / GED","No","","","","","",""
"",1607,"survey-likert",11,29225,"0.0-11.0","p216215",3,0,3,"R_VX1tcPu0dhkoheF","{""Q0"":0}",0,"lib/images/heron_600x600.jpg","heron",1,30,"Female","High School / GED","No","","","","","",""
"",1439,"survey-likert",12,30668,"0.0-12.0","p216215",3,0,3,"R_VX1tcPu0dhkoheF","{""Q0"":0}",0,"lib/images/peacock_600x600.jpg","peacock",1,30,"Female","High School / GED","No","","","","","",""
"",1994,"survey-likert",13,32667,"0.0-13.0","p216215",3,0,3,"R_VX1tcPu0dhkoheF","{""Q0"":3}",3,"lib/images/puffin_600x600.jpg","puffin",4,30,"Female","High School / GED","No","","","","","",""
"",1503,"survey-likert",14,34173,"0.0-14.0","p216215",3,0,3,"R_VX1tcPu0dhkoheF","{""Q0"":3}",3,"lib/images/cardinal_600x600.jpg","cardinal",4,30,"Female","High School / GED","No","","","","","",""
"",2063,"survey-likert",15,36241,"0.0-15.0","p216215",3,0,3,"R_VX1tcPu0dhkoheF","{""Q0"":3}",3,"lib/images/goldfinch_600x600.jpg","goldfinch",4,30,"Female","High School / GED","No","","","","","",""
"",1948,"survey-likert",16,38191,"0.0-16.0","p216215",3,0,3,"R_VX1tcPu0dhkoheF","{""Q0"":4}",4,"lib/images/pigeon_600x600.jpg","pigeon",5,30,"Female","High School / GED","No","","","","","",""
"",1976,"survey-likert",17,40170,"0.0-17.0","p216215",3,0,3,"R_VX1tcPu0dhkoheF","{""Q0"":1}",1,"lib/images/vulture_600x600.jpg","vulture",2,30,"Female","High School / GED","No","","","","","",""
"",2465,"survey-likert",18,42636,"0.0-18.0","p216215",3,0,3,"R_VX1tcPu0dhkoheF","{""Q0"":1}",1,"lib/images/kingfisher_600x600.jpg","kingfisher",2,30,"Female","High School / GED","No","","","","","",""
"",1331,"survey-likert",19,43971,"0.0-19.0","p216215",3,0,3,"R_VX1tcPu0dhkoheF","{""Q0"":0}",0,"lib/images/kookaburra_600x600.jpg","kookaburra",1,30,"Female","High School / GED","No","","","","","",""
"",2266,"survey-likert",20,46240,"0.0-20.0","p216215",3,0,3,"R_VX1tcPu0dhkoheF","{""Q0"":4}",4,"lib/images/seagull_600x600.jpg","seagull",5,30,"Female","High School / GED","No","","","","","",""
"[{""page_index"":0,""viewing_time"":1133}]",1134,"instructions",21,47376,"0.0-21.0","p216215",3,0,3,"R_VX1tcPu0dhkoheF","",NA,"","",NA,30,"Female","High School / GED","No","","","","","",""
"",2010,"survey-likert",22,49390,"0.0-22.0","p216215",3,0,3,"R_VX1tcPu0dhkoheF","{""Q0"":0}",0,"lib/images/lionfish_600x600.jpg","lionfish",1,30,"Female","High School / GED","No","","","","","",""
"",1511,"survey-likert",23,50905,"0.0-23.0","p216215",3,0,3,"R_VX1tcPu0dhkoheF","{""Q0"":3}",3,"lib/images/catfish_600x600.jpg","catfish",4,30,"Female","High School / GED","No","","","","","",""
"",1275,"survey-likert",24,52183,"0.0-24.0","p216215",3,0,3,"R_VX1tcPu0dhkoheF","{""Q0"":4}",4,"lib/images/bass_600x600.jpg","bass",5,30,"Female","High School / GED","No","","","","","",""
"",1514,"survey-likert",25,53700,"0.0-25.0","p216215",3,0,3,"R_VX1tcPu0dhkoheF","{""Q0"":1}",1,"lib/images/seahorse_600x600.jpg","seahorse",2,30,"Female","High School / GED","No","","","","","",""
"",3004,"survey-likert",26,56708,"0.0-26.0","p216215",3,0,3,"R_VX1tcPu0dhkoheF","{""Q0"":0}",0,"lib/images/bluetang_600x600.jpg","bluetang",1,30,"Female","High School / GED","No","","","","","",""
"",1689,"survey-likert",27,58399,"0.0-27.0","p216215",3,0,3,"R_VX1tcPu0dhkoheF","{""Q0"":1}",1,"lib/images/koi_600x600.jpg","koi",2,30,"Female","High School / GED","No","","","","","",""
"",1445,"survey-likert",28,59846,"0.0-28.0","p216215",3,0,3,"R_VX1tcPu0dhkoheF","{""Q0"":4}",4,"lib/images/clownfish_600x600.jpg","clownfish",5,30,"Female","High School / GED","No","","","","","",""
"",1390,"survey-likert",29,61242,"0.0-29.0","p216215",3,0,3,"R_VX1tcPu0dhkoheF","{""Q0"":2}",2,"lib/images/salmon_600x600.jpg","salmon",3,30,"Female","High School / GED","No","","","","","",""
"",1306,"survey-likert",30,62553,"0.0-30.0","p216215",3,0,3,"R_VX1tcPu0dhkoheF","{""Q0"":3}",3,"lib/images/bluegill_600x600.jpg","bluegill",4,30,"Female","High School / GED","No","","","","","",""
"",1480,"survey-likert",31,64034,"0.0-31.0","p216215",3,0,3,"R_VX1tcPu0dhkoheF","{""Q0"":3}",3,"lib/images/stingray_600x600.jpg","stingray",4,30,"Female","High School / GED","No","","","","","",""
"",1934,"survey-likert",32,65972,"0.0-32.0","p216215",3,0,3,"R_VX1tcPu0dhkoheF","{""Q0"":1}",1,"lib/images/pufferfish_600x600.jpg","pufferfish",2,30,"Female","High School / GED","No","","","","","",""
"",1342,"survey-likert",33,67318,"0.0-33.0","p216215",3,0,3,"R_VX1tcPu0dhkoheF","{""Q0"":3}",3,"lib/images/sergeantmajor_600x600.jpg","sergeantmajor",4,30,"Female","High School / GED","No","","","","","",""
"",5514,"survey-likert",34,72837,"0.0-34.0","p216215",3,0,3,"R_VX1tcPu0dhkoheF","{""Q0"":0}",0,"lib/images/cuttlefish_600x600.jpg","cuttlefish",1,30,"Female","High School / GED","No","","","","","",""
"",1540,"survey-likert",35,74384,"0.0-35.0","p216215",3,0,3,"R_VX1tcPu0dhkoheF","{""Q0"":1}",1,"lib/images/sturgeon_600x600.jpg","sturgeon",2,30,"Female","High School / GED","No","","","","","",""
"",1394,"survey-likert",36,75783,"0.0-36.0","p216215",3,0,3,"R_VX1tcPu0dhkoheF","{""Q0"":1}",1,"lib/images/betafish_600x600.jpg","betafish",2,30,"Female","High School / GED","No","","","","","",""
"",1704,"survey-likert",37,77491,"0.0-37.0","p216215",3,0,3,"R_VX1tcPu0dhkoheF","{""Q0"":3}",3,"lib/images/angelfish_600x600.jpg","angelfish",4,30,"Female","High School / GED","No","","","","","",""
"",1903,"survey-likert",38,79399,"0.0-38.0","p216215",3,0,3,"R_VX1tcPu0dhkoheF","{""Q0"":4}",4,"lib/images/goldfish_600x600.jpg","goldfish",5,30,"Female","High School / GED","No","","","","","",""
"[{""page_index"":0,""viewing_time"":50214}]",50215,"instructions",0,50220,"0.0-0.0","p21843",13,1,3,"R_29u1LiRAL5haW7k","",NA,"","",NA,22,"Male","Some College","Yes","spanish","","","","","english"
"",5100,"survey-likert",1,55325,"0.0-1.0","p21843",13,1,3,"R_29u1LiRAL5haW7k","{""Q0"":3}",3,"lib/images/chartreux_600x600.jpg","chartreux",4,22,"Male","Some College","Yes","spanish","","","","","english"
"",3872,"survey-likert",2,59199,"0.0-2.0","p21843",13,1,3,"R_29u1LiRAL5haW7k","{""Q0"":4}",4,"lib/images/sandcat_600x600.jpg","sandcat",5,22,"Male","Some College","Yes","spanish","","","","","english"
"",3431,"survey-likert",3,62633,"0.0-3.0","p21843",13,1,3,"R_29u1LiRAL5haW7k","{""Q0"":3}",3,"lib/images/exotic_600x600.jpg","exotic",4,22,"Male","Some College","Yes","spanish","","","","","english"
"",2054,"survey-likert",4,64689,"0.0-4.0","p21843",13,1,3,"R_29u1LiRAL5haW7k","{""Q0"":2}",2,"lib/images/egyptianmau_600x600.jpg","egyptianmau",3,22,"Male","Some College","Yes","spanish","","","","","english"
"",2541,"survey-likert",5,67233,"0.0-5.0","p21843",13,1,3,"R_29u1LiRAL5haW7k","{""Q0"":1}",1,"lib/images/oriental_600x600.jpg","oriental",2,22,"Male","Some College","Yes","spanish","","","","","english"
"",2235,"survey-likert",6,69470,"0.0-6.0","p21843",13,1,3,"R_29u1LiRAL5haW7k","{""Q0"":3}",3,"lib/images/siamese_600x600.jpg","siamese",4,22,"Male","Some College","Yes","spanish","","","","","english"
"",2131,"survey-likert",7,71605,"0.0-7.0","p21843",13,1,3,"R_29u1LiRAL5haW7k","{""Q0"":2}",2,"lib/images/britishshorthair_600x600.jpg","britishshorthair",3,22,"Male","Some College","Yes","spanish","","","","","english"
"",9757,"survey-likert",8,81364,"0.0-8.0","p21843",13,1,3,"R_29u1LiRAL5haW7k","{""Q0"":3}",3,"lib/images/tabby_600x600.jpg","tabby",4,22,"Male","Some College","Yes","spanish","","","","","english"
"",4354,"survey-likert",9,85720,"0.0-9.0","p21843",13,1,3,"R_29u1LiRAL5haW7k","{""Q0"":4}",4,"lib/images/toyger_600x600.jpg","toyger",5,22,"Male","Some College","Yes","spanish","","","","","english"
"",1575,"survey-likert",10,87298,"0.0-10.0","p21843",13,1,3,"R_29u1LiRAL5haW7k","{""Q0"":3}",3,"lib/images/shorthair_calico_600x600.jpg","shorthair_calico",4,22,"Male","Some College","Yes","spanish","","","","","english"
"",3631,"survey-likert",11,90932,"0.0-11.0","p21843",13,1,3,"R_29u1LiRAL5haW7k","{""Q0"":0}",0,"lib/images/sphynx_600x600.jpg","sphynx",1,22,"Male","Some College","Yes","spanish","","","","","english"
"",3414,"survey-likert",12,94351,"0.0-12.0","p21843",13,1,3,"R_29u1LiRAL5haW7k","{""Q0"":3}",3,"lib/images/americancurl_600x600.jpg","americancurl",4,22,"Male","Some College","Yes","spanish","","","","","english"
"",2186,"survey-likert",13,96541,"0.0-13.0","p21843",13,1,3,"R_29u1LiRAL5haW7k","{""Q0"":3}",3,"lib/images/bengal_600x600.jpg","bengal",4,22,"Male","Some College","Yes","spanish","","","","","english"
"",2004,"survey-likert",14,98546,"0.0-14.0","p21843",13,1,3,"R_29u1LiRAL5haW7k","{""Q0"":4}",4,"lib/images/arabianmau_600x600.jpg","arabianmau",5,22,"Male","Some College","Yes","spanish","","","","","english"
"",2188,"survey-likert",15,100739,"0.0-15.0","p21843",13,1,3,"R_29u1LiRAL5haW7k","{""Q0"":3}",3,"lib/images/siberian_600x600.jpg","siberian",4,22,"Male","Some College","Yes","spanish","","","","","english"
"",22989,"survey-likert",16,123730,"0.0-16.0","p21843",13,1,3,"R_29u1LiRAL5haW7k","{""Q0"":3}",3,"lib/images/cornishrex_600x600.jpg","cornishrex",4,22,"Male","Some College","Yes","spanish","","","","","english"
